"subj_idx","stim","stim_PM","stim_noPM","rt","response","trialno","TBdist","TSdist","SBdist","Helpful"
"1","Rem","PM","noPM","0.742","1","5","0.025194","0.083333","0.10853","7"
"1","Rem","PM","noPM","1.1491","0","6","0.025194","0.16667","0.14147","7"
"1","Rem","PM","noPM","0.56424","1","7","0.025194","0.25","0.22481","7"
"1","Rem","PM","noPM","0.81039","1","8","0.025194","0.083333","0.10853","7"
"1","Rem","PM","noPM","0.54966","1","9","0.025194","0.083333","0.10853","7"
"1","Rem","PM","noPM","0.78763","1","10","0.025194","0.33333","0.35853","7"
"1","Rem","PM","noPM","0.55371","1","11","0.025194","0.33333","0.30814","7"
"1","Rem","PM","noPM","0.63356","1","12","0.025194","0.16667","0.14147","7"
"1","Rem","PM","noPM","0.84491","1","13","0.025194","0.25","0.22481","7"
"1","Rem","PM","noPM","0.63955","1","14","0.025194","0.33333","0.35853","7"
"1","Rem","PM","noPM","0.8104","1","15","0.025194","0.5","0.47481","7"
"1","Rem","PM","noPM","0.93416","1","16","0.025194","0.083333","0.10853","7"
"1","Rem","PM","noPM","1.0134","1","17","0.025194","0.33333","0.30814","7"
"1","Rem","PM","noPM","0.83992","0","19","0.025194","0.33333","0.35853","7"
"1","Rem","PM","noPM","0.84364","0","20","0.025194","0.16667","0.14147","7"
"1","Rem","PM","noPM","0.92577","1","21","0.025194","0.33333","0.30814","7"
"1","Rem","PM","noPM","0.59736","1","22","0.025194","0.16667","0.19186","7"
"1","Rem","PM","noPM","0.82601","1","23","0.025194","0.5","0.47481","7"
"1","Rem","PM","noPM","0.82344","1","24","0.025194","0.16667","0.19186","7"
"1","Rem","PM","noPM","0.64274","1","25","0.025194","0.5","0.47481","7"
"1","Rem","PM","noPM","0.59879","1","26","0.025194","0.16667","0.19186","7"
"1","Rem","PM","noPM","0.63487","1","27","0.025194","0.25","0.22481","7"
"1","Rem","PM","noPM","0.69311","1","28","0.025194","0.33333","0.35853","7"
"1","Rem","PM","noPM","0.62148","1","29","0.025194","0.33333","0.30814","7"
"1","Rem","PM","noPM","0.56951","1","30","0.025194","0.5","0.47481","7"
"1","Rem","PM","noPM","0.86635","0","1","0.0014722","0.5","0.49853","7"
"1","Rem","PM","noPM","0.92453","1","2","0.0014722","0.083333","0.084806","7"
"1","Rem","PM","noPM","0.91521","1","3","0.0014722","0.33333","0.33481","7"
"1","Rem","PM","noPM","0.61874","1","4","0.0014722","0.25","0.24853","7"
"1","Rem","PM","noPM","0.78361","1","5","0.0014722","0.16667","0.16519","7"
"1","Rem","PM","noPM","0.6508","1","6","0.0014722","0.16667","0.16519","7"
"1","Rem","PM","noPM","0.5533","1","8","0.0014722","0.16667","0.16814","7"
"1","Rem","PM","noPM","0.54974","1","9","0.0014722","0.33333","0.33186","7"
"1","Rem","PM","noPM","0.65224","1","10","0.0014722","0.5","0.49853","7"
"1","Rem","PM","noPM","1.1179","1","11","0.0014722","0.083333","0.084806","7"
"1","Rem","PM","noPM","0.64567","1","12","0.0014722","0.16667","0.16814","7"
"1","Rem","PM","noPM","1.3838","0","13","0.0014722","0.25","0.24853","7"
"1","Rem","PM","noPM","0.70887","1","14","0.0014722","0.16667","0.16814","7"
"1","Rem","PM","noPM","0.70876","1","15","0.0014722","0.33333","0.33481","7"
"1","Rem","PM","noPM","0.71579","1","16","0.0014722","0.5","0.49853","7"
"1","Rem","PM","noPM","0.75733","0","18","0.0014722","0.33333","0.33186","7"
"1","Rem","PM","noPM","0.72265","1","19","0.0014722","0.5","0.49853","7"
"1","Rem","PM","noPM","0.92155","1","20","0.0014722","0.33333","0.33186","7"
"1","Rem","PM","noPM","0.63254","1","21","0.0014722","0.33333","0.33186","7"
"1","Rem","PM","noPM","0.67565","1","22","0.0014722","0.33333","0.33481","7"
"1","Rem","PM","noPM","0.75469","1","24","0.0014722","0.16667","0.16519","7"
"1","Rem","PM","noPM","0.92083","1","25","0.0014722","0.33333","0.33481","7"
"1","Rem","PM","noPM","1.0631","1","26","0.0014722","0.16667","0.16519","7"
"1","Rem","PM","noPM","0.62449","1","27","0.0014722","0.083333","0.084806","7"
"1","Rem","PM","noPM","0.71449","1","28","0.0014722","0.25","0.24853","7"
"1","Rem","PM","noPM","0.57798","1","29","0.0014722","0.16667","0.16814","7"
"1","Rem","PM","noPM","0.77641","1","30","0.0014722","0.25","0.24853","7"
"1","Rem","PM","noPM","0.67964","1","2","0.016139","0.33333","0.31719","7"
"1","Rem","PM","noPM","0.86513","1","3","0.016139","0.5","0.48386","7"
"1","Rem","PM","noPM","0.6079","0","5","0.016139","0.33333","0.31719","7"
"1","Rem","PM","noPM","0.61353","1","6","0.016139","0.083333","0.067194","7"
"1","Rem","PM","noPM","0.70896","0","7","0.016139","0.33333","0.34947","7"
"1","Rem","PM","noPM","0.77498","1","8","0.016139","0.33333","0.31719","7"
"1","Rem","PM","noPM","0.67092","0","10","0.016139","0.41667","0.40053","7"
"1","Rem","PM","noPM","0.59391","1","11","0.016139","0.083333","0.067194","7"
"1","Rem","PM","noPM","1.377","1","12","0.016139","0.41667","0.40053","7"
"1","Rem","PM","noPM","0.64713","1","13","0.016139","0.33333","0.34947","7"
"1","Rem","PM","noPM","0.80354","0","14","0.016139","0.41667","0.40053","7"
"1","Rem","PM","noPM","1.1233","1","15","0.016139","0.5","0.48386","7"
"1","Rem","PM","noPM","0.73258","1","16","0.016139","0.16667","0.18281","7"
"1","Rem","PM","noPM","0.70969","1","17","0.016139","0.16667","0.15053","7"
"1","Rem","PM","noPM","0.72714","1","18","0.016139","0.083333","0.067194","7"
"1","Rem","PM","noPM","0.65521","1","19","0.016139","0.083333","0.067194","7"
"1","Rem","PM","noPM","0.66499","1","21","0.016139","0.33333","0.31719","7"
"1","Rem","PM","noPM","0.5552","1","22","0.016139","0.41667","0.40053","7"
"1","Rem","PM","noPM","0.61937","1","23","0.016139","0.5","0.48386","7"
"1","Rem","PM","noPM","0.65695","1","24","0.016139","0.16667","0.15053","7"
"1","Rem","PM","noPM","0.74175","1","25","0.016139","0.16667","0.18281","7"
"1","Rem","PM","noPM","1.3121","1","26","0.016139","0.16667","0.15053","7"
"1","Rem","PM","noPM","0.53891","1","27","0.016139","0.5","0.48386","7"
"1","Rem","PM","noPM","0.5492","1","28","0.016139","0.16667","0.18281","7"
"1","Rem","PM","noPM","1.0636","1","29","0.016139","0.16667","0.18281","7"
"1","Rem","PM","noPM","0.50866","1","30","0.016139","0.33333","0.34947","7"
"1","Rem","PM","noPM","1.0899","1","1","0.0028056","0.083333","0.086139","7"
"1","Rem","PM","noPM","0.75707","1","2","0.0028056","0.25","0.24719","7"
"1","Rem","PM","noPM","0.85747","1","3","0.0028056","0.41667","0.41386","7"
"1","Rem","PM","noPM","0.69047","1","4","0.0028056","0.083333","0.080528","7"
"1","Rem","PM","noPM","0.54736","1","5","0.0028056","0.33333","0.33053","7"
"1","Rem","PM","noPM","0.7294","1","7","0.0028056","0.41667","0.41947","7"
"1","Rem","PM","noPM","0.54617","1","8","0.0028056","0.25","0.24719","7"
"1","Rem","PM","noPM","0.87408","1","9","0.0028056","0.33333","0.33053","7"
"1","Rem","PM","noPM","0.8717","1","11","0.0028056","0.25","0.24719","7"
"1","Rem","PM","noPM","0.8741","1","12","0.0028056","0.25","0.24719","7"
"1","Rem","PM","noPM","0.84487","1","13","0.0028056","0.083333","0.080528","7"
"1","Rem","PM","noPM","0.5619","0","14","0.0028056","0.41667","0.41947","7"
"1","Rem","PM","noPM","0.55549","1","15","0.0028056","0.33333","0.33053","7"
"1","Rem","PM","noPM","0.57403","1","16","0.0028056","0.25","0.25281","7"
"1","Rem","PM","noPM","0.60535","1","17","0.0028056","0.33333","0.33053","7"
"1","Rem","PM","noPM","0.46684","1","18","0.0028056","0.41667","0.41947","7"
"1","Rem","PM","noPM","0.97545","1","19","0.0028056","0.083333","0.086139","7"
"1","Rem","PM","noPM","0.62458","1","21","0.0028056","0.41667","0.41386","7"
"1","Rem","PM","noPM","0.59554","1","22","0.0028056","0.41667","0.41947","7"
"1","Rem","PM","noPM","0.99384","1","23","0.0028056","0.083333","0.080528","7"
"1","Rem","PM","noPM","0.7451","1","24","0.0028056","0.25","0.25281","7"
"1","Rem","PM","noPM","0.8889","0","25","0.0028056","0.41667","0.41386","7"
"1","Rem","PM","noPM","0.65988","1","26","0.0028056","0.41667","0.41386","7"
"1","Rem","PM","noPM","0.88725","0","27","0.0028056","0.25","0.25281","7"
"1","Rem","PM","noPM","1.3474","1","28","0.0028056","0.083333","0.080528","7"
"1","Rem","PM","noPM","0.59573","1","29","0.0028056","0.083333","0.086139","7"
"1","Rem","PM","noPM","0.71437","1","30","0.0028056","0.25","0.25281","7"
"1","Rem","PM","noPM","0.77718","1","1","0.032806","0.33333","0.36614","7"
"1","Rem","PM","noPM","0.79331","1","2","0.032806","0.16667","0.19947","7"
"1","Rem","PM","noPM","0.8211","1","4","0.032806","0.16667","0.19947","7"
"1","Rem","PM","noPM","0.96271","1","5","0.032806","0.16667","0.13386","7"
"1","Rem","PM","noPM","0.92173","1","6","0.032806","0.5","0.46719","7"
"1","Rem","PM","noPM","0.6754","1","7","0.032806","0.41667","0.44947","7"
"1","Rem","PM","noPM","0.60475","1","8","0.032806","0.33333","0.36614","7"
"1","Rem","PM","noPM","1.1166","1","9","0.032806","0.25","0.21719","7"
"1","Rem","PM","noPM","0.90982","1","10","0.032806","0.5","0.46719","7"
"1","Rem","PM","noPM","1.041","1","12","0.032806","0.16667","0.13386","7"
"1","Rem","PM","noPM","1.1742","1","13","0.032806","0.33333","0.30053","7"
"1","Rem","PM","noPM","0.66302","1","14","0.032806","0.41667","0.44947","7"
"1","Rem","PM","noPM","0.76307","1","15","0.032806","0.16667","0.13386","7"
"1","Rem","PM","noPM","0.81177","1","16","0.032806","0.33333","0.30053","7"
"1","Rem","PM","noPM","0.715","1","17","0.032806","0.25","0.21719","7"
"1","Rem","PM","noPM","0.71123","1","18","0.032806","0.41667","0.44947","7"
"1","Rem","PM","noPM","1.172","1","20","0.032806","0.16667","0.19947","7"
"1","Rem","PM","noPM","1.2046","1","21","0.032806","0.33333","0.30053","7"
"1","Rem","PM","noPM","1.251","1","22","0.032806","0.25","0.21719","7"
"1","Rem","PM","noPM","1.0157","1","23","0.032806","0.5","0.46719","7"
"1","Rem","PM","noPM","0.7158","1","26","0.032806","0.16667","0.13386","7"
"1","Rem","PM","noPM","0.5417","1","27","0.032806","0.41667","0.44947","7"
"1","Rem","PM","noPM","0.725","1","28","0.032806","0.33333","0.36614","7"
"1","Rem","PM","noPM","0.76601","1","29","0.032806","0.5","0.46719","7"
"1","Rem","PM","noPM","0.5825","1","30","0.032806","0.16667","0.19947","7"
"1","Rem","PM","noPM","0.80475","1","1","0.020806","0.5","0.47919","7"
"1","Rem","PM","noPM","0.68263","1","2","0.020806","0.41667","0.43747","7"
"1","Rem","PM","noPM","0.59073","1","3","0.020806","0.33333","0.35414","7"
"1","Rem","PM","noPM","0.95839","1","4","0.020806","0.25","0.22919","7"
"1","Rem","PM","noPM","0.67684","0","5","0.020806","0.16667","0.18747","7"
"1","Rem","PM","noPM","0.99986","1","6","0.020806","0.25","0.22919","7"
"1","Rem","PM","noPM","0.65473","1","7","0.020806","0.5","0.47919","7"
"1","Rem","PM","noPM","0.88282","1","9","0.020806","0.41667","0.43747","7"
"1","Rem","PM","noPM","0.86072","1","10","0.020806","0.33333","0.35414","7"
"1","Rem","PM","noPM","0.7048","1","11","0.020806","0.33333","0.35414","7"
"1","Rem","PM","noPM","0.70566","1","12","0.020806","0.33333","0.35414","7"
"1","Rem","PM","noPM","1.4903","1","13","0.020806","0.5","0.47919","7"
"1","Rem","PM","noPM","0.78792","1","14","0.020806","0.41667","0.43747","7"
"1","Rem","PM","noPM","0.7228","1","15","0.020806","0.33333","0.31253","7"
"1","Rem","PM","noPM","0.62884","1","16","0.020806","0.33333","0.31253","7"
"1","Rem","PM","noPM","0.79114","1","18","0.020806","0.16667","0.18747","7"
"1","Rem","PM","noPM","0.95699","1","19","0.020806","0.16667","0.18747","7"
"1","Rem","PM","noPM","0.66021","1","20","0.020806","0.16667","0.14586","7"
"1","Rem","PM","noPM","0.8391","1","21","0.020806","0.16667","0.14586","7"
"1","Rem","PM","noPM","0.70625","0","22","0.020806","0.25","0.22919","7"
"1","Rem","PM","noPM","0.86192","1","24","0.020806","0.5","0.47919","7"
"1","Rem","PM","noPM","0.76946","1","25","0.020806","0.16667","0.14586","7"
"1","Rem","PM","noPM","0.63267","1","27","0.020806","0.33333","0.31253","7"
"1","Rem","PM","noPM","0.63741","1","28","0.020806","0.16667","0.18747","7"
"1","Rem","PM","noPM","0.73805","1","29","0.020806","0.41667","0.43747","7"
"1","Rem","PM","noPM","0.6005","1","30","0.020806","0.25","0.22919","7"
"1","Rem","PM","noPM","0.91473","1","1","0.0068056","0.16667","0.15986","7"
"1","Rem","PM","noPM","1.0689","1","3","0.0068056","0.16667","0.17347","7"
"1","Rem","PM","noPM","0.89507","1","4","0.0068056","0.33333","0.34014","7"
"1","Rem","PM","noPM","0.52866","1","5","0.0068056","0.16667","0.17347","7"
"1","Rem","PM","noPM","0.89858","0","6","0.0068056","0.5","0.49319","7"
"1","Rem","PM","noPM","0.69193","1","7","0.0068056","0.16667","0.15986","7"
"1","Rem","PM","noPM","0.83022","0","8","0.0068056","0.083333","0.076528","7"
"1","Rem","PM","noPM","0.78766","0","9","0.0068056","0.33333","0.34014","7"
"1","Rem","PM","noPM","0.64345","1","10","0.0068056","0.5","0.49319","7"
"1","Rem","PM","noPM","0.65763","1","11","0.0068056","0.25","0.25681","7"
"1","Rem","PM","noPM","0.7119","1","12","0.0068056","0.16667","0.15986","7"
"1","Rem","PM","noPM","0.72022","1","13","0.0068056","0.16667","0.15986","7"
"1","Rem","PM","noPM","0.96404","1","14","0.0068056","0.25","0.25681","7"
"1","Rem","PM","noPM","0.66981","1","16","0.0068056","0.5","0.49319","7"
"1","Rem","PM","noPM","0.68139","1","17","0.0068056","0.25","0.25681","7"
"1","Rem","PM","noPM","0.67061","1","18","0.0068056","0.33333","0.34014","7"
"1","Rem","PM","noPM","0.52208","1","19","0.0068056","0.33333","0.32653","7"
"1","Rem","PM","noPM","0.97311","1","20","0.0068056","0.083333","0.076528","7"
"1","Rem","PM","noPM","0.68404","1","21","0.0068056","0.5","0.49319","7"
"1","Rem","PM","noPM","0.73482","1","22","0.0068056","0.16667","0.17347","7"
"1","Rem","PM","noPM","0.66508","1","23","0.0068056","0.25","0.25681","7"
"1","Rem","PM","noPM","0.57355","1","24","0.0068056","0.16667","0.17347","7"
"1","Rem","PM","noPM","1.287","0","25","0.0068056","0.083333","0.076528","7"
"1","Rem","PM","noPM","1.0023","1","26","0.0068056","0.083333","0.076528","7"
"1","Rem","PM","noPM","0.9603","1","27","0.0068056","0.33333","0.32653","7"
"1","Rem","PM","noPM","0.65727","1","28","0.0068056","0.33333","0.32653","7"
"1","Rem","PM","noPM","0.75828","1","29","0.0068056","0.33333","0.34014","7"
"1","Rem","PM","noPM","1.2731","1","30","0.0068056","0.33333","0.32653","7"
"1","Rem","PM","noPM","0.77868","1","1","0.00013889","0.5","0.49986","7"
"1","Rem","PM","noPM","1.391","1","3","0.00013889","0.5","0.49986","7"
"1","Rem","PM","noPM","0.82089","1","4","0.00013889","0.16667","0.16653","7"
"1","Rem","PM","noPM","0.7551","1","5","0.00013889","0.083333","0.083472","7"
"1","Rem","PM","noPM","0.68509","1","6","0.00013889","0.16667","0.16653","7"
"1","Rem","PM","noPM","0.91141","1","7","0.00013889","0.16667","0.16681","7"
"1","Rem","PM","noPM","0.71346","1","8","0.00013889","0.33333","0.33319","7"
"1","Rem","PM","noPM","0.61743","1","9","0.00013889","0.5","0.49986","7"
"1","Rem","PM","noPM","0.95946","0","10","0.00013889","0.41667","0.41681","7"
"1","Rem","PM","noPM","1.0968","1","11","0.00013889","0.41667","0.41681","7"
"1","Rem","PM","noPM","0.67498","1","12","0.00013889","0.41667","0.41681","7"
"1","Rem","PM","noPM","0.9149","1","14","0.00013889","0.33333","0.33347","7"
"1","Rem","PM","noPM","0.62032","1","15","0.00013889","0.33333","0.33347","7"
"1","Rem","PM","noPM","0.75529","1","16","0.00013889","0.33333","0.33347","7"
"1","Rem","PM","noPM","0.54699","1","17","0.00013889","0.33333","0.33319","7"
"1","Rem","PM","noPM","0.62073","0","18","0.00013889","0.41667","0.41681","7"
"1","Rem","PM","noPM","0.92405","1","19","0.00013889","0.16667","0.16681","7"
"1","Rem","PM","noPM","0.86987","0","20","0.00013889","0.33333","0.33347","7"
"1","Rem","PM","noPM","0.69899","1","21","0.00013889","0.16667","0.16653","7"
"1","Rem","PM","noPM","1.09","1","23","0.00013889","0.16667","0.16681","7"
"1","Rem","PM","noPM","0.8688","0","24","0.00013889","0.083333","0.083472","7"
"1","Rem","PM","noPM","0.64995","1","25","0.00013889","0.083333","0.083472","7"
"1","Rem","PM","noPM","0.5599","1","26","0.00013889","0.083333","0.083472","7"
"1","Rem","PM","noPM","1.8815","1","27","0.00013889","0.33333","0.33319","7"
"1","Rem","PM","noPM","1.2131","1","28","0.00013889","0.5","0.49986","7"
"1","Rem","PM","noPM","0.5548","1","29","0.00013889","0.33333","0.33319","7"
"1","Rem","PM","noPM","0.70759","1","30","0.00013889","0.16667","0.16653","7"
"1","Rem","PM","noPM","0.82446","1","1","0.0085278","0.16667","0.15814","7"
"1","Rem","PM","noPM","0.71779","1","2","0.0085278","0.33333","0.34186","7"
"1","Rem","PM","noPM","0.7358","1","3","0.0085278","0.5","0.49147","7"
"1","Rem","PM","noPM","0.75167","1","4","0.0085278","0.5","0.49147","7"
"1","Rem","PM","noPM","0.70426","1","5","0.0085278","0.16667","0.15814","7"
"1","Rem","PM","noPM","0.80399","1","6","0.0085278","0.16667","0.17519","7"
"1","Rem","PM","noPM","0.88048","1","7","0.0085278","0.083333","0.074806","7"
"1","Rem","PM","noPM","0.71527","1","8","0.0085278","0.16667","0.17519","7"
"1","Rem","PM","noPM","0.66779","1","9","0.0085278","0.16667","0.17519","7"
"1","Rem","PM","noPM","0.66489","1","10","0.0085278","0.33333","0.34186","7"
"1","Rem","PM","noPM","0.65899","1","11","0.0085278","0.16667","0.15814","7"
"1","Rem","PM","noPM","0.5896","1","12","0.0085278","0.33333","0.32481","7"
"1","Rem","PM","noPM","0.74956","1","13","0.0085278","0.25","0.25853","7"
"1","Rem","PM","noPM","0.78165","1","15","0.0085278","0.083333","0.074806","7"
"1","Rem","PM","noPM","0.65211","1","16","0.0085278","0.33333","0.32481","7"
"1","Rem","PM","noPM","0.56929","1","17","0.0085278","0.5","0.49147","7"
"1","Rem","PM","noPM","0.57003","1","18","0.0085278","0.083333","0.074806","7"
"1","Rem","PM","noPM","0.68302","1","19","0.0085278","0.16667","0.17519","7"
"1","Rem","PM","noPM","0.56743","1","20","0.0085278","0.33333","0.34186","7"
"1","Rem","PM","noPM","0.64783","1","21","0.0085278","0.33333","0.32481","7"
"1","Rem","PM","noPM","0.60696","1","22","0.0085278","0.33333","0.34186","7"
"1","Rem","PM","noPM","0.70994","0","23","0.0085278","0.16667","0.15814","7"
"1","Rem","PM","noPM","0.91109","1","25","0.0085278","0.083333","0.074806","7"
"1","Rem","PM","noPM","0.60433","1","26","0.0085278","0.25","0.25853","7"
"1","Rem","PM","noPM","0.69257","1","27","0.0085278","0.25","0.25853","7"
"1","Rem","PM","noPM","0.64021","1","28","0.0085278","0.5","0.49147","7"
"1","Rem","PM","noPM","0.6946","1","29","0.0085278","0.25","0.25853","7"
"1","Rem","PM","noPM","0.97939","0","1","0.0025278","0.5","0.49747","7"
"1","Rem","PM","noPM","0.58199","1","2","0.0025278","0.5","0.49747","7"
"1","Rem","PM","noPM","0.65953","1","3","0.0025278","0.16667","0.16919","7"
"1","Rem","PM","noPM","0.57667","1","4","0.0025278","0.33333","0.33081","7"
"1","Rem","PM","noPM","0.61569","1","5","0.0025278","0.25","0.24747","7"
"1","Rem","PM","noPM","0.62251","0","6","0.0025278","0.33333","0.33586","7"
"1","Rem","PM","noPM","0.54128","0","7","0.0025278","0.33333","0.33586","7"
"1","Rem","PM","noPM","0.54198","1","8","0.0025278","0.16667","0.16414","7"
"1","Rem","PM","noPM","0.63301","1","10","0.0025278","0.5","0.49747","7"
"1","Rem","PM","noPM","0.64822","1","12","0.0025278","0.16667","0.16919","7"
"1","Rem","PM","noPM","0.54081","1","13","0.0025278","0.16667","0.16919","7"
"1","Rem","PM","noPM","0.83995","1","14","0.0025278","0.16667","0.16414","7"
"1","Rem","PM","noPM","0.6455","1","15","0.0025278","0.41667","0.41919","7"
"1","Rem","PM","noPM","0.49163","1","16","0.0025278","0.16667","0.16414","7"
"1","Rem","PM","noPM","0.70403","0","17","0.0025278","0.16667","0.16919","7"
"1","Rem","PM","noPM","0.94008","1","18","0.0025278","0.33333","0.33586","7"
"1","Rem","PM","noPM","0.74997","1","19","0.0025278","0.25","0.24747","7"
"1","Rem","PM","noPM","0.7751","1","20","0.0025278","0.33333","0.33586","7"
"1","Rem","PM","noPM","1.1752","0","21","0.0025278","0.25","0.24747","7"
"1","Rem","PM","noPM","0.84605","1","22","0.0025278","0.16667","0.16414","7"
"1","Rem","PM","noPM","0.81157","1","23","0.0025278","0.5","0.49747","7"
"1","Rem","PM","noPM","0.78468","1","24","0.0025278","0.41667","0.41919","7"
"1","Rem","PM","noPM","0.53673","1","25","0.0025278","0.41667","0.41919","7"
"1","Rem","PM","noPM","0.67236","1","26","0.0025278","0.41667","0.41919","7"
"1","Rem","PM","noPM","0.77109","1","27","0.0025278","0.33333","0.33081","7"
"1","Rem","PM","noPM","0.74831","1","28","0.0025278","0.33333","0.33081","7"
"1","Rem","PM","noPM","1.0073","1","30","0.0025278","0.25","0.24747","7"
"1","Rem","PM","noPM","0.68111","1","1","0.016139","0.083333","0.067194","7"
"1","Rem","PM","noPM","0.70006","1","2","0.016139","0.41667","0.40053","7"
"1","Rem","PM","noPM","0.71123","0","3","0.016139","0.16667","0.18281","7"
"1","Rem","PM","noPM","0.80072","1","4","0.016139","0.41667","0.40053","7"
"1","Rem","PM","noPM","0.7728","1","6","0.016139","0.33333","0.31719","7"
"1","Rem","PM","noPM","0.61302","1","7","0.016139","0.5","0.48386","7"
"1","Rem","PM","noPM","0.63235","1","8","0.016139","0.33333","0.34947","7"
"1","Rem","PM","noPM","0.60357","1","9","0.016139","0.16667","0.15053","7"
"1","Rem","PM","noPM","0.60682","1","11","0.016139","0.5","0.48386","7"
"1","Rem","PM","noPM","0.61923","1","12","0.016139","0.33333","0.31719","7"
"1","Rem","PM","noPM","0.84766","1","14","0.016139","0.33333","0.31719","7"
"1","Rem","PM","noPM","0.78731","1","15","0.016139","0.16667","0.18281","7"
"1","Rem","PM","noPM","0.60201","1","16","0.016139","0.5","0.48386","7"
"1","Rem","PM","noPM","0.82381","1","17","0.016139","0.33333","0.31719","7"
"1","Rem","PM","noPM","0.56715","1","18","0.016139","0.16667","0.15053","7"
"1","Rem","PM","noPM","0.61767","1","19","0.016139","0.33333","0.34947","7"
"1","Rem","PM","noPM","0.70373","1","20","0.016139","0.083333","0.067194","7"
"1","Rem","PM","noPM","0.61625","1","21","0.016139","0.33333","0.34947","7"
"1","Rem","PM","noPM","0.95073","1","22","0.016139","0.41667","0.40053","7"
"1","Rem","PM","noPM","0.6255","1","23","0.016139","0.16667","0.15053","7"
"1","Rem","PM","noPM","0.75348","1","25","0.016139","0.16667","0.18281","7"
"1","Rem","PM","noPM","0.68832","1","26","0.016139","0.083333","0.067194","7"
"1","Rem","PM","noPM","0.52294","1","27","0.016139","0.083333","0.067194","7"
"1","Rem","PM","noPM","0.94785","0","28","0.016139","0.16667","0.18281","7"
"1","Rem","PM","noPM","0.90692","1","29","0.016139","0.5","0.48386","7"
"1","Rem","PM","noPM","0.6586","1","30","0.016139","0.16667","0.15053","7"
"1","Rem","PM","noPM","0.64421","1","1","0.016528","0.41667","0.40014","7"
"1","Rem","PM","noPM","0.87178","1","2","0.016528","0.083333","0.099861","7"
"1","Rem","PM","noPM","0.7634","1","3","0.016528","0.25","0.23347","7"
"1","Rem","PM","noPM","0.89985","1","4","0.016528","0.41667","0.40014","7"
"1","Rem","PM","noPM","1.0885","1","5","0.016528","0.083333","0.066806","7"
"1","Rem","PM","noPM","0.72718","1","7","0.016528","0.41667","0.43319","7"
"1","Rem","PM","noPM","0.61559","1","8","0.016528","0.083333","0.099861","7"
"1","Rem","PM","noPM","1.654","1","9","0.016528","0.41667","0.43319","7"
"1","Rem","PM","noPM","0.87602","1","10","0.016528","0.41667","0.40014","7"
"1","Rem","PM","noPM","0.59433","1","11","0.016528","0.41667","0.40014","7"
"1","Rem","PM","noPM","0.80146","1","12","0.016528","0.083333","0.099861","7"
"1","Rem","PM","noPM","0.60039","1","13","0.016528","0.41667","0.43319","7"
"1","Rem","PM","noPM","0.62367","1","14","0.016528","0.25","0.26653","7"
"1","Rem","PM","noPM","0.70947","1","15","0.016528","0.083333","0.066806","7"
"1","Rem","PM","noPM","0.63203","1","16","0.016528","0.25","0.26653","7"
"1","Rem","PM","noPM","0.88667","1","17","0.016528","0.41667","0.43319","7"
"1","Rem","PM","noPM","0.72225","1","18","0.016528","0.33333","0.31681","7"
"1","Rem","PM","noPM","0.95413","1","19","0.016528","0.083333","0.066806","7"
"1","Rem","PM","noPM","0.81163","1","20","0.016528","0.33333","0.31681","7"
"1","Rem","PM","noPM","1.0507","1","21","0.016528","0.083333","0.066806","7"
"1","Rem","PM","noPM","0.69426","1","22","0.016528","0.25","0.26653","7"
"1","Rem","PM","noPM","0.68943","1","23","0.016528","0.33333","0.31681","7"
"1","Rem","PM","noPM","1.2524","1","24","0.016528","0.25","0.23347","7"
"1","Rem","PM","noPM","0.58939","1","26","0.016528","0.33333","0.31681","7"
"1","Rem","PM","noPM","0.97216","1","27","0.016528","0.083333","0.099861","7"
"1","Rem","PM","noPM","0.93184","1","28","0.016528","0.25","0.23347","7"
"1","Rem","PM","noPM","1.0771","1","29","0.016528","0.25","0.26653","7"
"1","Rem","PM","noPM","0.80034","1","30","0.016528","0.25","0.23347","7"
"1","Rem","PM","noPM","1.0492","1","1","0.00013889","0.33333","0.33347","7"
"1","Rem","PM","noPM","0.61972","1","2","0.00013889","0.33333","0.33347","7"
"1","Rem","PM","noPM","0.6159","1","3","0.00013889","0.16667","0.16653","7"
"1","Rem","PM","noPM","0.47828","1","4","0.00013889","0.16667","0.16653","7"
"1","Rem","PM","noPM","0.53159","1","5","0.00013889","0.41667","0.41681","7"
"1","Rem","PM","noPM","0.57368","1","6","0.00013889","0.5","0.49986","7"
"1","Rem","PM","noPM","0.54955","1","7","0.00013889","0.33333","0.33319","7"
"1","Rem","PM","noPM","0.74311","1","8","0.00013889","0.33333","0.33319","7"
"1","Rem","PM","noPM","0.63133","1","9","0.00013889","0.5","0.49986","7"
"1","Rem","PM","noPM","0.58889","1","10","0.00013889","0.16667","0.16681","7"
"1","Rem","PM","noPM","0.5657","1","11","0.00013889","0.083333","0.083472","7"
"1","Rem","PM","noPM","0.76524","1","12","0.00013889","0.41667","0.41681","7"
"1","Rem","PM","noPM","0.61243","1","13","0.00013889","0.33333","0.33347","7"
"1","Rem","PM","noPM","1.2419","0","14","0.00013889","0.083333","0.083472","7"
"1","Rem","PM","noPM","0.67147","0","15","0.00013889","0.083333","0.083472","7"
"1","Rem","PM","noPM","0.68943","1","17","0.00013889","0.083333","0.083472","7"
"1","Rem","PM","noPM","0.70023","1","18","0.00013889","0.16667","0.16653","7"
"1","Rem","PM","noPM","0.66373","1","19","0.00013889","0.41667","0.41681","7"
"1","Rem","PM","noPM","0.68479","1","20","0.00013889","0.33333","0.33347","7"
"1","Rem","PM","noPM","0.67083","1","21","0.00013889","0.41667","0.41681","7"
"1","Rem","PM","noPM","0.81701","1","23","0.00013889","0.5","0.49986","7"
"1","Rem","PM","noPM","0.60612","1","24","0.00013889","0.16667","0.16681","7"
"1","Rem","PM","noPM","0.87948","1","25","0.00013889","0.16667","0.16681","7"
"1","Rem","PM","noPM","0.58599","1","26","0.00013889","0.33333","0.33319","7"
"1","Rem","PM","noPM","0.7281","1","27","0.00013889","0.16667","0.16653","7"
"1","Rem","PM","noPM","0.62519","1","28","0.00013889","0.5","0.49986","7"
"1","Rem","PM","noPM","0.68548","1","29","0.00013889","0.33333","0.33319","7"
"1","Rem","PM","noPM","0.79306","1","30","0.00013889","0.16667","0.16681","7"
"1","Rem","PM","noPM","0.9284","1","1","0.016528","0.33333","0.31681","7"
"1","Rem","PM","noPM","0.80818","1","2","0.016528","0.33333","0.31681","7"
"1","Rem","PM","noPM","0.72625","1","3","0.016528","0.41667","0.43319","7"
"1","Rem","PM","noPM","0.85629","1","4","0.016528","0.25","0.26653","7"
"1","Rem","PM","noPM","0.64297","1","5","0.016528","0.25","0.23347","7"
"1","Rem","PM","noPM","0.7268","1","6","0.016528","0.25","0.26653","7"
"1","Rem","PM","noPM","0.90551","1","7","0.016528","0.41667","0.40014","7"
"1","Rem","PM","noPM","0.70858","1","8","0.016528","0.083333","0.099861","7"
"1","Rem","PM","noPM","0.91928","1","9","0.016528","0.083333","0.066806","7"
"1","Rem","PM","noPM","0.71283","1","10","0.016528","0.41667","0.40014","7"
"1","Rem","PM","noPM","0.70626","1","11","0.016528","0.25","0.26653","7"
"1","Rem","PM","noPM","0.76517","1","12","0.016528","0.083333","0.066806","7"
"1","Rem","PM","noPM","0.54959","1","13","0.016528","0.083333","0.099861","7"
"1","Rem","PM","noPM","0.66302","1","14","0.016528","0.41667","0.40014","7"
"1","Rem","PM","noPM","0.87676","1","15","0.016528","0.41667","0.43319","7"
"1","Rem","PM","noPM","0.66559","1","16","0.016528","0.25","0.23347","7"
"1","Rem","PM","noPM","0.61256","1","18","0.016528","0.083333","0.099861","7"
"1","Rem","PM","noPM","0.89757","0","19","0.016528","0.41667","0.40014","7"
"1","Rem","PM","noPM","0.98342","1","21","0.016528","0.083333","0.066806","7"
"1","Rem","PM","noPM","0.68661","1","22","0.016528","0.083333","0.099861","7"
"1","Rem","PM","noPM","0.72107","1","23","0.016528","0.41667","0.43319","7"
"1","Rem","PM","noPM","0.98025","1","24","0.016528","0.25","0.23347","7"
"1","Rem","PM","noPM","0.71618","1","25","0.016528","0.33333","0.31681","7"
"1","Rem","PM","noPM","0.74984","1","26","0.016528","0.41667","0.43319","7"
"1","Rem","PM","noPM","0.61506","0","27","0.016528","0.33333","0.31681","7"
"1","Rem","PM","noPM","0.59012","1","28","0.016528","0.25","0.23347","7"
"1","Rem","PM","noPM","0.71061","1","29","0.016528","0.083333","0.066806","7"
"1","Rem","PM","noPM","0.80229","1","30","0.016528","0.25","0.26653","7"
"1","Rem","PM","noPM","1.0852","1","1","0.0071944","0.25","0.24281","7"
"1","Rem","PM","noPM","0.58227","1","2","0.0071944","0.41667","0.42386","7"
"1","Rem","PM","noPM","0.74682","1","3","0.0071944","0.25","0.25719","7"
"1","Rem","PM","noPM","0.71377","1","4","0.0071944","0.25","0.25719","7"
"1","Rem","PM","noPM","0.60535","1","5","0.0071944","0.41667","0.42386","7"
"1","Rem","PM","noPM","0.53149","1","6","0.0071944","0.33333","0.34053","7"
"1","Rem","PM","noPM","1.3277","1","7","0.0071944","0.41667","0.40947","7"
"1","Rem","PM","noPM","0.63157","1","8","0.0071944","0.25","0.24281","7"
"1","Rem","PM","noPM","0.7488","1","9","0.0071944","0.083333","0.090528","7"
"1","Rem","PM","noPM","0.58033","1","10","0.0071944","0.33333","0.34053","7"
"1","Rem","PM","noPM","0.74602","1","11","0.0071944","0.25","0.25719","7"
"1","Rem","PM","noPM","0.65327","1","13","0.0071944","0.083333","0.090528","7"
"1","Rem","PM","noPM","0.59431","1","14","0.0071944","0.083333","0.076139","7"
"1","Rem","PM","noPM","0.52075","1","15","0.0071944","0.25","0.24281","7"
"1","Rem","PM","noPM","0.73067","1","16","0.0071944","0.083333","0.076139","7"
"1","Rem","PM","noPM","1.0208","0","18","0.0071944","0.41667","0.40947","7"
"1","Rem","PM","noPM","1.0403","1","19","0.0071944","0.083333","0.076139","7"
"1","Rem","PM","noPM","0.8527","1","20","0.0071944","0.41667","0.42386","7"
"1","Rem","PM","noPM","0.73424","1","21","0.0071944","0.083333","0.090528","7"
"1","Rem","PM","noPM","0.55989","1","22","0.0071944","0.41667","0.40947","7"
"1","Rem","PM","noPM","0.54474","1","23","0.0071944","0.25","0.25719","7"
"1","Rem","PM","noPM","0.65977","1","24","0.0071944","0.25","0.24281","7"
"1","Rem","PM","noPM","0.71094","1","25","0.0071944","0.33333","0.34053","7"
"1","Rem","PM","noPM","0.72149","1","26","0.0071944","0.083333","0.090528","7"
"1","Rem","PM","noPM","0.95532","1","27","0.0071944","0.33333","0.34053","7"
"1","Rem","PM","noPM","0.97133","0","28","0.0071944","0.083333","0.076139","7"
"1","Rem","PM","noPM","0.6749","1","29","0.0071944","0.41667","0.42386","7"
"1","Rem","PM","noPM","0.61571","1","30","0.0071944","0.41667","0.40947","7"
"1","Rem","PM","noPM","1.3515","1","1","0.012528","0.33333","0.32081","7"
"1","Rem","PM","noPM","0.69542","0","2","0.012528","0.33333","0.34586","7"
"1","Rem","PM","noPM","0.93742","1","3","0.012528","0.33333","0.32081","7"
"1","Rem","PM","noPM","0.66555","1","4","0.012528","0.5","0.48747","7"
"1","Rem","PM","noPM","0.92925","1","6","0.012528","0.16667","0.17919","7"
"1","Rem","PM","noPM","0.58552","1","7","0.012528","0.5","0.48747","7"
"1","Rem","PM","noPM","0.59152","1","8","0.012528","0.5","0.48747","7"
"1","Rem","PM","noPM","0.59978","1","9","0.012528","0.33333","0.34586","7"
"1","Rem","PM","noPM","0.6229","1","10","0.012528","0.16667","0.17919","7"
"1","Rem","PM","noPM","0.78035","1","11","0.012528","0.25","0.23747","7"
"1","Rem","PM","noPM","0.55537","0","12","0.012528","0.33333","0.34586","7"
"1","Rem","PM","noPM","1.1338","1","13","0.012528","0.5","0.48747","7"
"1","Rem","PM","noPM","0.9596","1","14","0.012528","0.16667","0.15414","7"
"1","Rem","PM","noPM","0.62312","1","15","0.012528","0.41667","0.42919","7"
"1","Rem","PM","noPM","0.57526","1","16","0.012528","0.41667","0.42919","7"
"1","Rem","PM","noPM","0.87159","1","17","0.012528","0.25","0.23747","7"
"1","Rem","PM","noPM","0.54394","1","18","0.012528","0.16667","0.17919","7"
"1","Rem","PM","noPM","0.60205","1","19","0.012528","0.25","0.23747","7"
"1","Rem","PM","noPM","0.60937","1","20","0.012528","0.41667","0.42919","7"
"1","Rem","PM","noPM","0.59279","1","21","0.012528","0.33333","0.32081","7"
"1","Rem","PM","noPM","0.70628","1","24","0.012528","0.16667","0.15414","7"
"1","Rem","PM","noPM","1.1983","1","25","0.012528","0.41667","0.42919","7"
"1","Rem","PM","noPM","1.1432","1","26","0.012528","0.16667","0.15414","7"
"1","Rem","PM","noPM","0.75921","1","27","0.012528","0.33333","0.34586","7"
"1","Rem","PM","noPM","0.83934","1","28","0.012528","0.25","0.23747","7"
"1","Rem","PM","noPM","0.65402","1","29","0.012528","0.16667","0.17919","7"
"1","Rem","PM","noPM","0.71444","1","30","0.012528","0.33333","0.32081","7"
"1","Uad","PM","PM","1.2225","0","1","0.24653","0.25","0.0034722","7"
"1","Uad","PM","PM","0.65085","1","2","0.24653","0.41667","0.33681","7"
"1","Uad","PM","PM","0.83288","1","3","0.24653","0.083333","0.16319","7"
"1","Uad","PM","PM","0.7417","1","4","0.24653","0.41667","0.33681","7"
"1","Uad","PM","PM","0.62893","1","5","0.24653","0.083333","0.32986","7"
"1","Uad","PM","PM","1.0509","0","6","0.24653","0.41667","0.17014","7"
"1","Uad","PM","PM","0.74261","1","7","0.24653","0.33333","0.086806","7"
"1","Uad","PM","PM","0.64071","1","8","0.24653","0.41667","0.33681","7"
"1","Uad","PM","PM","0.65503","1","9","0.24653","0.41667","0.17014","7"
"1","Uad","PM","PM","1.837","1","10","0.24653","0.083333","0.16319","7"
"1","Uad","PM","PM","1.2814","1","11","0.24653","0.33333","0.086806","7"
"1","Uad","PM","PM","0.75676","1","12","0.24653","0.083333","0.32986","7"
"1","Uad","PM","PM","0.59008","1","13","0.24653","0.41667","0.33681","7"
"1","Uad","PM","PM","0.82069","1","14","0.24653","0.33333","0.086806","7"
"1","Uad","PM","PM","0.81127","1","15","0.24653","0.25","0.0034722","7"
"1","Uad","PM","PM","1.0832","0","16","0.24653","0.083333","0.16319","7"
"1","Uad","PM","PM","0.56626","1","17","0.24653","0.25","0.49653","7"
"1","Uad","PM","PM","0.7346","1","18","0.24653","0.33333","0.086806","7"
"1","Uad","PM","PM","0.85928","1","20","0.24653","0.25","0.49653","7"
"1","Uad","PM","PM","0.67155","1","21","0.24653","0.41667","0.17014","7"
"1","Uad","PM","PM","0.65895","1","22","0.24653","0.25","0.0034722","7"
"1","Uad","PM","PM","0.81988","0","24","0.24653","0.25","0.49653","7"
"1","Uad","PM","PM","0.81596","1","25","0.24653","0.083333","0.32986","7"
"1","Uad","PM","PM","0.81202","1","27","0.24653","0.083333","0.16319","7"
"1","Uad","PM","PM","0.80496","1","29","0.24653","0.41667","0.17014","7"
"1","Uad","PM","PM","1.1626","1","30","0.24653","0.25","0.0034722","7"
"1","Uad","PM","PM","0.6159","1","1","0.0034722","0.33333","0.33681","7"
"1","Uad","PM","PM","1.4049","1","3","0.0034722","0.33333","0.32986","7"
"1","Uad","PM","PM","0.49086","1","4","0.0034722","0.5","0.49653","7"
"1","Uad","PM","PM","0.6695","0","5","0.0034722","0.16667","0.16319","7"
"1","Uad","PM","PM","0.88047","1","6","0.0034722","0.16667","0.16319","7"
"1","Uad","PM","PM","0.84834","1","7","0.0034722","0.5","0.49653","7"
"1","Uad","PM","PM","0.66305","1","8","0.0034722","0.33333","0.32986","7"
"1","Uad","PM","PM","0.74799","1","9","0.0034722","0.083333","0.086806","7"
"1","Uad","PM","PM","0.86953","1","10","0.0034722","0.25","0.24653","7"
"1","Uad","PM","PM","0.55872","1","11","0.0034722","0.33333","0.32986","7"
"1","Uad","PM","PM","1.2546","0","12","0.0034722","0.16667","0.17014","7"
"1","Uad","PM","PM","1.7961","1","13","0.0034722","0.083333","0.086806","7"
"1","Uad","PM","PM","0.76694","1","14","0.0034722","0.33333","0.33681","7"
"1","Uad","PM","PM","1.0058","1","15","0.0034722","0.16667","0.16319","7"
"1","Uad","PM","PM","0.67577","1","16","0.0034722","0.33333","0.32986","7"
"1","Uad","PM","PM","0.98049","1","17","0.0034722","0.5","0.49653","7"
"1","Uad","PM","PM","1.2949","0","18","0.0034722","0.5","0.49653","7"
"1","Uad","PM","PM","1.1933","1","19","0.0034722","0.083333","0.086806","7"
"1","Uad","PM","PM","1.4327","1","20","0.0034722","0.33333","0.33681","7"
"1","Uad","PM","PM","0.64533","1","21","0.0034722","0.083333","0.086806","7"
"1","Uad","PM","PM","0.69394","1","23","0.0034722","0.25","0.24653","7"
"1","Uad","PM","PM","1.0213","1","24","0.0034722","0.16667","0.17014","7"
"1","Uad","PM","PM","0.62543","1","25","0.0034722","0.16667","0.17014","7"
"1","Uad","PM","PM","0.89401","1","26","0.0034722","0.25","0.24653","7"
"1","Uad","PM","PM","0.55222","1","27","0.0034722","0.33333","0.33681","7"
"1","Uad","PM","PM","0.69643","1","28","0.0034722","0.16667","0.16319","7"
"1","Uad","PM","PM","0.64765","1","1","0.0034722","0.5","0.49653","7"
"1","Uad","PM","PM","0.49972","1","2","0.0034722","0.16667","0.16319","7"
"1","Uad","PM","PM","0.7031","1","3","0.0034722","0.25","0.24653","7"
"1","Uad","PM","PM","0.86333","1","4","0.0034722","0.16667","0.17014","7"
"1","Uad","PM","PM","0.61239","1","5","0.0034722","0.33333","0.33681","7"
"1","Uad","PM","PM","0.79223","1","6","0.0034722","0.33333","0.32986","7"
"1","Uad","PM","PM","1.3042","1","10","0.0034722","0.25","0.24653","7"
"1","Uad","PM","PM","1.2777","1","11","0.0034722","0.5","0.49653","7"
"1","Uad","PM","PM","0.48978","1","12","0.0034722","0.16667","0.17014","7"
"1","Uad","PM","PM","0.63671","1","13","0.0034722","0.16667","0.16319","7"
"1","Uad","PM","PM","0.62597","1","14","0.0034722","0.5","0.49653","7"
"1","Uad","PM","PM","0.54959","1","15","0.0034722","0.33333","0.32986","7"
"1","Uad","PM","PM","0.70216","1","16","0.0034722","0.33333","0.32986","7"
"1","Uad","PM","PM","0.68706","1","17","0.0034722","0.083333","0.086806","7"
"1","Uad","PM","PM","1.3116","1","18","0.0034722","0.33333","0.33681","7"
"1","Uad","PM","PM","0.70489","1","19","0.0034722","0.16667","0.17014","7"
"1","Uad","PM","PM","0.57153","1","20","0.0034722","0.25","0.24653","7"
"1","Uad","PM","PM","0.54782","1","21","0.0034722","0.16667","0.16319","7"
"1","Uad","PM","PM","0.58965","1","22","0.0034722","0.33333","0.32986","7"
"1","Uad","PM","PM","0.90131","1","23","0.0034722","0.16667","0.16319","7"
"1","Uad","PM","PM","0.66415","1","24","0.0034722","0.083333","0.086806","7"
"1","Uad","PM","PM","1.3083","1","25","0.0034722","0.5","0.49653","7"
"1","Uad","PM","PM","0.64643","1","26","0.0034722","0.33333","0.33681","7"
"1","Uad","PM","PM","0.64372","1","27","0.0034722","0.16667","0.17014","7"
"1","Uad","PM","PM","0.8709","1","28","0.0034722","0.25","0.24653","7"
"1","Uad","PM","PM","0.74609","1","29","0.0034722","0.083333","0.086806","7"
"1","Uad","PM","PM","0.92789","1","1","0.49653","0.16667","0.33681","7"
"1","Uad","PM","PM","0.76696","0","2","0.49653","0.33333","0.16319","7"
"1","Uad","PM","PM","1.23","1","3","0.49653","0.25","0.24653","7"
"1","Uad","PM","PM","0.75143","1","4","0.49653","0.5","0.0034722","7"
"1","Uad","PM","PM","1.1331","0","5","0.49653","0.33333","0.16319","7"
"1","Uad","PM","PM","0.67797","1","6","0.49653","0.33333","0.16319","7"
"1","Uad","PM","PM","0.83929","1","7","0.49653","0.25","0.24653","7"
"1","Uad","PM","PM","0.6995","1","8","0.49653","0.41667","0.086806","7"
"1","Uad","PM","PM","1.0602","1","9","0.49653","0.33333","0.17014","7"
"1","Uad","PM","PM","0.79105","1","10","0.49653","0.5","0.0034722","7"
"1","Uad","PM","PM","0.59714","1","11","0.49653","0.33333","0.16319","7"
"1","Uad","PM","PM","1.2755","1","12","0.49653","0.16667","0.32986","7"
"1","Uad","PM","PM","0.84425","1","13","0.49653","0.41667","0.086806","7"
"1","Uad","PM","PM","0.67856","1","14","0.49653","0.16667","0.32986","7"
"1","Uad","PM","PM","0.5216","1","15","0.49653","0.16667","0.32986","7"
"1","Uad","PM","PM","0.81869","1","16","0.49653","0.5","0.0034722","7"
"1","Uad","PM","PM","0.86398","1","17","0.49653","0.33333","0.17014","7"
"1","Uad","PM","PM","0.76789","1","18","0.49653","0.16667","0.32986","7"
"1","Uad","PM","PM","0.93407","0","19","0.49653","0.5","0.0034722","7"
"1","Uad","PM","PM","1.3586","0","21","0.49653","0.25","0.24653","7"
"1","Uad","PM","PM","0.6931","0","22","0.49653","0.25","0.24653","7"
"1","Uad","PM","PM","1.2661","1","24","0.49653","0.33333","0.17014","7"
"1","Uad","PM","PM","1.1654","1","25","0.49653","0.41667","0.086806","7"
"1","Uad","PM","PM","1.3787","0","26","0.49653","0.41667","0.086806","7"
"1","Uad","PM","PM","0.78536","1","27","0.49653","0.16667","0.33681","7"
"1","Uad","PM","PM","0.99531","0","29","0.49653","0.16667","0.33681","7"
"1","Uad","PM","PM","0.72882","1","30","0.49653","0.33333","0.17014","7"
"1","Uad","PM","PM","0.9539","1","1","0.17014","0.5","0.32986","7"
"1","Uad","PM","PM","0.75156","1","2","0.17014","0.33333","0.16319","7"
"1","Uad","PM","PM","0.79205","1","3","0.17014","0.33333","0.49653","7"
"1","Uad","PM","PM","0.7908","1","4","0.17014","0.5","0.32986","7"
"1","Uad","PM","PM","0.76545","1","5","0.17014","0.33333","0.16319","7"
"1","Uad","PM","PM","0.9719","1","6","0.17014","0.33333","0.49653","7"
"1","Uad","PM","PM","0.88876","1","7","0.17014","0.16667","0.0034722","7"
"1","Uad","PM","PM","1.3216","1","8","0.17014","0.41667","0.24653","7"
"1","Uad","PM","PM","0.5284","1","9","0.17014","0.41667","0.24653","7"
"1","Uad","PM","PM","0.68981","1","10","0.17014","0.33333","0.49653","7"
"1","Uad","PM","PM","0.95696","1","11","0.17014","0.083333","0.086806","7"
"1","Uad","PM","PM","0.84352","1","12","0.17014","0.083333","0.086806","7"
"1","Uad","PM","PM","0.5197","0","13","0.17014","0.16667","0.33681","7"
"1","Uad","PM","PM","0.93772","1","14","0.17014","0.41667","0.24653","7"
"1","Uad","PM","PM","1.2515","1","15","0.17014","0.16667","0.33681","7"
"1","Uad","PM","PM","0.95961","1","16","0.17014","0.33333","0.16319","7"
"1","Uad","PM","PM","0.94341","1","17","0.17014","0.16667","0.33681","7"
"1","Uad","PM","PM","0.87219","1","18","0.17014","0.083333","0.086806","7"
"1","Uad","PM","PM","0.67537","1","19","0.17014","0.16667","0.0034722","7"
"1","Uad","PM","PM","0.87127","1","20","0.17014","0.41667","0.24653","7"
"1","Uad","PM","PM","0.84502","1","22","0.17014","0.16667","0.0034722","7"
"1","Uad","PM","PM","0.60027","1","25","0.17014","0.083333","0.086806","7"
"1","Uad","PM","PM","1.375","1","26","0.17014","0.5","0.32986","7"
"1","Uad","PM","PM","1.3872","1","28","0.17014","0.5","0.32986","7"
"1","Uad","PM","PM","0.72044","1","29","0.17014","0.33333","0.16319","7"
"1","Uad","PM","PM","0.81734","1","30","0.17014","0.16667","0.0034722","7"
"1","Uad","PM","PM","0.62448","1","2","0.16319","0.33333","0.17014","7"
"1","Uad","PM","PM","1.5444","1","4","0.16319","0.25","0.086806","7"
"1","Uad","PM","PM","0.55845","1","5","0.16319","0.5","0.33681","7"
"1","Uad","PM","PM","0.54019","1","6","0.16319","0.083333","0.24653","7"
"1","Uad","PM","PM","1.028","1","7","0.16319","0.5","0.33681","7"
"1","Uad","PM","PM","0.71663","1","8","0.16319","0.083333","0.24653","7"
"1","Uad","PM","PM","1.1638","1","10","0.16319","0.16667","0.32986","7"
"1","Uad","PM","PM","1.0505","0","11","0.16319","0.33333","0.49653","7"
"1","Uad","PM","PM","0.59791","1","12","0.16319","0.33333","0.17014","7"
"1","Uad","PM","PM","0.7335","1","13","0.16319","0.16667","0.32986","7"
"1","Uad","PM","PM","1.1696","1","15","0.16319","0.33333","0.49653","7"
"1","Uad","PM","PM","0.56269","1","16","0.16319","0.16667","0.0034722","7"
"1","Uad","PM","PM","0.5806","1","17","0.16319","0.16667","0.0034722","7"
"1","Uad","PM","PM","0.50056","1","18","0.16319","0.16667","0.0034722","7"
"1","Uad","PM","PM","0.88743","1","19","0.16319","0.16667","0.32986","7"
"1","Uad","PM","PM","0.65104","1","20","0.16319","0.33333","0.17014","7"
"1","Uad","PM","PM","1.6543","1","21","0.16319","0.083333","0.24653","7"
"1","Uad","PM","PM","1.2992","1","22","0.16319","0.5","0.33681","7"
"1","Uad","PM","PM","0.73186","1","23","0.16319","0.25","0.086806","7"
"1","Uad","PM","PM","0.6127","1","24","0.16319","0.5","0.33681","7"
"1","Uad","PM","PM","0.73969","1","25","0.16319","0.16667","0.0034722","7"
"1","Uad","PM","PM","0.74024","1","26","0.16319","0.25","0.086806","7"
"1","Uad","PM","PM","1.0614","1","27","0.16319","0.33333","0.17014","7"
"1","Uad","PM","PM","0.68025","1","28","0.16319","0.33333","0.49653","7"
"1","Uad","PM","PM","0.65219","1","29","0.16319","0.33333","0.49653","7"
"1","Uad","PM","PM","0.88974","1","30","0.16319","0.083333","0.24653","7"
"1","Uad","PM","PM","1.0623","1","1","0.33681","0.16667","0.49653","7"
"1","Uad","PM","PM","0.66688","1","3","0.33681","0.33333","0.32986","7"
"1","Uad","PM","PM","0.826","1","5","0.33681","0.16667","0.49653","7"
"1","Uad","PM","PM","0.57587","1","6","0.33681","0.5","0.16319","7"
"1","Uad","PM","PM","0.69583","1","7","0.33681","0.33333","0.32986","7"
"1","Uad","PM","PM","0.65079","1","8","0.33681","0.16667","0.17014","7"
"1","Uad","PM","PM","0.75744","1","9","0.33681","0.16667","0.17014","7"
"1","Uad","PM","PM","1.5314","0","10","0.33681","0.41667","0.24653","7"
"1","Uad","PM","PM","0.6054","1","11","0.33681","0.5","0.16319","7"
"1","Uad","PM","PM","1.0131","1","12","0.33681","0.16667","0.49653","7"
"1","Uad","PM","PM","0.78697","1","13","0.33681","0.41667","0.24653","7"
"1","Uad","PM","PM","0.68126","1","14","0.33681","0.5","0.16319","7"
"1","Uad","PM","PM","0.5016","1","15","0.33681","0.25","0.086806","7"
"1","Uad","PM","PM","1.2479","1","16","0.33681","0.41667","0.24653","7"
"1","Uad","PM","PM","0.6392","1","18","0.33681","0.5","0.16319","7"
"1","Uad","PM","PM","1.3323","0","19","0.33681","0.33333","0.0034722","7"
"1","Uad","PM","PM","0.54921","1","20","0.33681","0.41667","0.24653","7"
"1","Uad","PM","PM","0.66198","1","21","0.33681","0.33333","0.32986","7"
"1","Uad","PM","PM","0.81726","1","22","0.33681","0.33333","0.0034722","7"
"1","Uad","PM","PM","0.69383","1","23","0.33681","0.16667","0.49653","7"
"1","Uad","PM","PM","0.72276","0","24","0.33681","0.25","0.086806","7"
"1","Uad","PM","PM","0.65081","1","25","0.33681","0.16667","0.17014","7"
"1","Uad","PM","PM","0.5282","1","26","0.33681","0.33333","0.32986","7"
"1","Uad","PM","PM","1.3212","1","27","0.33681","0.25","0.086806","7"
"1","Uad","PM","PM","0.62623","1","28","0.33681","0.33333","0.0034722","7"
"1","Uad","PM","PM","0.78764","1","29","0.33681","0.16667","0.17014","7"
"1","Uad","PM","PM","1.2979","0","30","0.33681","0.33333","0.0034722","7"
"1","Uad","PM","PM","0.62817","1","1","0.32986","0.083333","0.24653","7"
"1","Uad","PM","PM","0.85514","0","2","0.32986","0.083333","0.24653","7"
"1","Uad","PM","PM","0.77725","1","3","0.32986","0.16667","0.49653","7"
"1","Uad","PM","PM","1.2631","1","4","0.32986","0.33333","0.0034722","7"
"1","Uad","PM","PM","0.80177","1","5","0.32986","0.33333","0.33681","7"
"1","Uad","PM","PM","0.76442","1","7","0.32986","0.16667","0.16319","7"
"1","Uad","PM","PM","1.123","0","8","0.32986","0.16667","0.16319","7"
"1","Uad","PM","PM","0.76306","1","9","0.32986","0.41667","0.086806","7"
"1","Uad","PM","PM","0.61038","1","10","0.32986","0.16667","0.49653","7"
"1","Uad","PM","PM","0.63917","1","11","0.32986","0.33333","0.33681","7"
"1","Uad","PM","PM","0.86712","1","12","0.32986","0.16667","0.16319","7"
"1","Uad","PM","PM","0.9106","1","13","0.32986","0.16667","0.49653","7"
"1","Uad","PM","PM","0.76804","1","14","0.32986","0.33333","0.0034722","7"
"1","Uad","PM","PM","0.73548","1","15","0.32986","0.5","0.17014","7"
"1","Uad","PM","PM","0.84604","0","17","0.32986","0.41667","0.086806","7"
"1","Uad","PM","PM","0.68195","1","18","0.32986","0.5","0.17014","7"
"1","Uad","PM","PM","1.0286","1","19","0.32986","0.33333","0.33681","7"
"1","Uad","PM","PM","0.64891","1","20","0.32986","0.41667","0.086806","7"
"1","Uad","PM","PM","0.56621","1","21","0.32986","0.5","0.17014","7"
"1","Uad","PM","PM","0.56579","1","22","0.32986","0.083333","0.24653","7"
"1","Uad","PM","PM","0.75096","1","23","0.32986","0.33333","0.0034722","7"
"1","Uad","PM","PM","0.98458","0","24","0.32986","0.16667","0.16319","7"
"1","Uad","PM","PM","0.95246","1","25","0.32986","0.083333","0.24653","7"
"1","Uad","PM","PM","1.1297","1","26","0.32986","0.33333","0.0034722","7"
"1","Uad","PM","PM","1.644","0","27","0.32986","0.5","0.17014","7"
"1","Uad","PM","PM","0.59993","1","28","0.32986","0.41667","0.086806","7"
"1","Uad","PM","PM","0.85484","1","29","0.32986","0.33333","0.33681","7"
"1","Uad","PM","PM","0.93974","1","30","0.32986","0.16667","0.49653","7"
"1","Uad","PM","PM","1.1926","1","1","0.086806","0.33333","0.24653","7"
"1","Uad","PM","PM","0.5992","1","2","0.086806","0.25","0.16319","7"
"1","Uad","PM","PM","0.85388","0","3","0.086806","0.083333","0.0034722","7"
"1","Uad","PM","PM","0.64095","1","4","0.086806","0.33333","0.24653","7"
"1","Uad","PM","PM","1.9566","1","5","0.086806","0.41667","0.49653","7"
"1","Uad","PM","PM","0.82778","1","6","0.086806","0.083333","0.0034722","7"
"1","Uad","PM","PM","0.68866","1","7","0.086806","0.083333","0.17014","7"
"1","Uad","PM","PM","0.71436","1","8","0.086806","0.083333","0.17014","7"
"1","Uad","PM","PM","0.69874","1","9","0.086806","0.083333","0.0034722","7"
"1","Uad","PM","PM","1.201","1","11","0.086806","0.083333","0.0034722","7"
"1","Uad","PM","PM","1.3819","1","12","0.086806","0.41667","0.32986","7"
"1","Uad","PM","PM","1.23","0","13","0.086806","0.41667","0.32986","7"
"1","Uad","PM","PM","1.3245","1","14","0.086806","0.25","0.16319","7"
"1","Uad","PM","PM","0.72437","1","15","0.086806","0.41667","0.49653","7"
"1","Uad","PM","PM","0.65365","1","16","0.086806","0.33333","0.24653","7"
"1","Uad","PM","PM","0.90555","1","17","0.086806","0.083333","0.17014","7"
"1","Uad","PM","PM","0.75437","1","18","0.086806","0.41667","0.49653","7"
"1","Uad","PM","PM","0.69086","1","19","0.086806","0.33333","0.24653","7"
"1","Uad","PM","PM","0.52011","1","20","0.086806","0.41667","0.32986","7"
"1","Uad","PM","PM","0.49892","1","21","0.086806","0.25","0.33681","7"
"1","Uad","PM","PM","0.63214","1","22","0.086806","0.25","0.16319","7"
"1","Uad","PM","PM","0.65193","1","24","0.086806","0.25","0.16319","7"
"1","Uad","PM","PM","0.71123","1","25","0.086806","0.41667","0.49653","7"
"1","Uad","PM","PM","0.68207","1","26","0.086806","0.083333","0.17014","7"
"1","Uad","PM","PM","0.77402","1","27","0.086806","0.25","0.33681","7"
"1","Uad","PM","PM","0.59227","1","28","0.086806","0.25","0.33681","7"
"1","Uad","PM","PM","0.63139","1","30","0.086806","0.25","0.33681","7"
"1","Uad","PM","PM","0.91656","0","1","0.16319","0.083333","0.24653","7"
"1","Uad","PM","PM","0.67539","1","2","0.16319","0.16667","0.0034722","7"
"1","Uad","PM","PM","0.94486","0","4","0.16319","0.25","0.086806","7"
"1","Uad","PM","PM","0.87908","1","5","0.16319","0.33333","0.17014","7"
"1","Uad","PM","PM","0.95427","1","6","0.16319","0.16667","0.0034722","7"
"1","Uad","PM","PM","0.58605","1","7","0.16319","0.16667","0.0034722","7"
"1","Uad","PM","PM","0.67229","1","8","0.16319","0.083333","0.24653","7"
"1","Uad","PM","PM","0.79492","1","9","0.16319","0.25","0.086806","7"
"1","Uad","PM","PM","0.78577","1","10","0.16319","0.5","0.33681","7"
"1","Uad","PM","PM","0.63363","0","11","0.16319","0.33333","0.17014","7"
"1","Uad","PM","PM","0.64495","1","12","0.16319","0.5","0.33681","7"
"1","Uad","PM","PM","0.96914","1","13","0.16319","0.25","0.086806","7"
"1","Uad","PM","PM","0.57663","1","14","0.16319","0.5","0.33681","7"
"1","Uad","PM","PM","0.73658","1","15","0.16319","0.16667","0.32986","7"
"1","Uad","PM","PM","0.5708","1","16","0.16319","0.16667","0.32986","7"
"1","Uad","PM","PM","0.70652","1","17","0.16319","0.25","0.086806","7"
"1","Uad","PM","PM","1.0509","1","18","0.16319","0.083333","0.24653","7"
"1","Uad","PM","PM","0.69573","1","19","0.16319","0.16667","0.0034722","7"
"1","Uad","PM","PM","1.0349","1","20","0.16319","0.33333","0.49653","7"
"1","Uad","PM","PM","0.95244","1","21","0.16319","0.33333","0.49653","7"
"1","Uad","PM","PM","0.80402","1","23","0.16319","0.33333","0.49653","7"
"1","Uad","PM","PM","0.60217","1","24","0.16319","0.5","0.33681","7"
"1","Uad","PM","PM","0.71444","1","25","0.16319","0.16667","0.32986","7"
"1","Uad","PM","PM","0.69288","1","28","0.16319","0.33333","0.17014","7"
"1","Uad","PM","PM","0.71878","1","29","0.16319","0.33333","0.17014","7"
"1","Uad","PM","PM","0.66466","1","30","0.16319","0.33333","0.49653","7"
"1","Uad","PM","PM","1.0054","1","1","0.24653","0.41667","0.17014","7"
"1","Uad","PM","PM","0.94746","0","2","0.24653","0.25","0.0034722","7"
"1","Uad","PM","PM","1.1484","1","3","0.24653","0.25","0.49653","7"
"1","Uad","PM","PM","0.97288","1","4","0.24653","0.083333","0.16319","7"
"1","Uad","PM","PM","0.80351","1","5","0.24653","0.41667","0.17014","7"
"1","Uad","PM","PM","0.72915","1","6","0.24653","0.41667","0.33681","7"
"1","Uad","PM","PM","0.61091","1","7","0.24653","0.083333","0.32986","7"
"1","Uad","PM","PM","0.5546","1","8","0.24653","0.083333","0.32986","7"
"1","Uad","PM","PM","1.2033","1","9","0.24653","0.33333","0.086806","7"
"1","Uad","PM","PM","0.45721","1","10","0.24653","0.083333","0.32986","7"
"1","Uad","PM","PM","0.72553","0","11","0.24653","0.25","0.49653","7"
"1","Uad","PM","PM","0.69405","1","12","0.24653","0.41667","0.33681","7"
"1","Uad","PM","PM","0.93535","1","13","0.24653","0.25","0.0034722","7"
"1","Uad","PM","PM","1.6881","1","14","0.24653","0.083333","0.16319","7"
"1","Uad","PM","PM","0.57172","0","15","0.24653","0.25","0.49653","7"
"1","Uad","PM","PM","0.60398","1","16","0.24653","0.083333","0.32986","7"
"1","Uad","PM","PM","0.61024","1","17","0.24653","0.33333","0.086806","7"
"1","Uad","PM","PM","1.0392","1","18","0.24653","0.41667","0.17014","7"
"1","Uad","PM","PM","0.63522","1","19","0.24653","0.33333","0.086806","7"
"1","Uad","PM","PM","0.61519","1","21","0.24653","0.41667","0.33681","7"
"1","Uad","PM","PM","0.59526","1","22","0.24653","0.25","0.0034722","7"
"1","Uad","PM","PM","0.61788","1","23","0.24653","0.083333","0.16319","7"
"1","Uad","PM","PM","0.60087","1","24","0.24653","0.25","0.49653","7"
"1","Uad","PM","PM","0.7044","1","25","0.24653","0.25","0.0034722","7"
"1","Uad","PM","PM","0.58705","1","26","0.24653","0.33333","0.086806","7"
"1","Uad","PM","PM","0.87117","1","28","0.24653","0.41667","0.33681","7"
"1","Uad","PM","PM","0.97795","1","29","0.24653","0.083333","0.16319","7"
"1","Uad","PM","PM","0.59515","1","30","0.24653","0.41667","0.17014","7"
"1","Uad","PM","PM","1.1272","1","1","0.086806","0.083333","0.0034722","7"
"1","Uad","PM","PM","0.86533","1","2","0.086806","0.25","0.16319","7"
"1","Uad","PM","PM","1.0848","1","3","0.086806","0.25","0.33681","7"
"1","Uad","PM","PM","1.1994","1","4","0.086806","0.25","0.33681","7"
"1","Uad","PM","PM","0.60527","0","5","0.086806","0.41667","0.49653","7"
"1","Uad","PM","PM","0.70008","1","6","0.086806","0.25","0.33681","7"
"1","Uad","PM","PM","0.60586","1","7","0.086806","0.083333","0.17014","7"
"1","Uad","PM","PM","0.66665","1","8","0.086806","0.083333","0.17014","7"
"1","Uad","PM","PM","0.78235","1","9","0.086806","0.41667","0.32986","7"
"1","Uad","PM","PM","1.0431","0","10","0.086806","0.25","0.16319","7"
"1","Uad","PM","PM","0.51842","0","11","0.086806","0.083333","0.0034722","7"
"1","Uad","PM","PM","0.69446","1","12","0.086806","0.33333","0.24653","7"
"1","Uad","PM","PM","0.83307","1","13","0.086806","0.41667","0.49653","7"
"1","Uad","PM","PM","0.81366","1","14","0.086806","0.41667","0.32986","7"
"1","Uad","PM","PM","0.78848","1","15","0.086806","0.083333","0.17014","7"
"1","Uad","PM","PM","0.71668","1","16","0.086806","0.33333","0.24653","7"
"1","Uad","PM","PM","0.58042","0","17","0.086806","0.33333","0.24653","7"
"1","Uad","PM","PM","0.62687","1","19","0.086806","0.25","0.16319","7"
"1","Uad","PM","PM","0.8101","1","21","0.086806","0.083333","0.17014","7"
"1","Uad","PM","PM","0.60101","1","22","0.086806","0.41667","0.32986","7"
"1","Uad","PM","PM","0.65004","1","23","0.086806","0.33333","0.24653","7"
"1","Uad","PM","PM","1.3831","1","24","0.086806","0.25","0.33681","7"
"1","Uad","PM","PM","1.3651","1","25","0.086806","0.25","0.16319","7"
"1","Uad","PM","PM","0.66214","1","26","0.086806","0.41667","0.49653","7"
"1","Uad","PM","PM","0.59302","1","27","0.086806","0.083333","0.0034722","7"
"1","Uad","PM","PM","0.67168","1","28","0.086806","0.41667","0.32986","7"
"1","Uad","PM","PM","0.5712","1","29","0.086806","0.41667","0.49653","7"
"1","Uad","PM","PM","0.92517","1","30","0.086806","0.083333","0.0034722","7"
"1","Uad","PM","PM","0.78298","1","1","0.33681","0.16667","0.49653","7"
"1","Uad","PM","PM","0.57491","1","2","0.33681","0.25","0.086806","7"
"1","Uad","PM","PM","0.63906","1","4","0.33681","0.41667","0.24653","7"
"1","Uad","PM","PM","0.76619","1","6","0.33681","0.16667","0.17014","7"
"1","Uad","PM","PM","0.65444","0","7","0.33681","0.16667","0.49653","7"
"1","Uad","PM","PM","0.69199","1","8","0.33681","0.5","0.16319","7"
"1","Uad","PM","PM","1.0796","1","9","0.33681","0.16667","0.49653","7"
"1","Uad","PM","PM","1.3622","1","10","0.33681","0.33333","0.0034722","7"
"1","Uad","PM","PM","0.77663","1","11","0.33681","0.16667","0.49653","7"
"1","Uad","PM","PM","0.70471","1","12","0.33681","0.16667","0.17014","7"
"1","Uad","PM","PM","0.69572","1","14","0.33681","0.25","0.086806","7"
"1","Uad","PM","PM","0.87522","1","15","0.33681","0.33333","0.32986","7"
"1","Uad","PM","PM","1.2308","1","16","0.33681","0.41667","0.24653","7"
"1","Uad","PM","PM","0.60378","1","17","0.33681","0.33333","0.0034722","7"
"1","Uad","PM","PM","0.62803","1","18","0.33681","0.41667","0.24653","7"
"1","Uad","PM","PM","0.93778","1","19","0.33681","0.33333","0.32986","7"
"1","Uad","PM","PM","0.79487","1","20","0.33681","0.16667","0.17014","7"
"1","Uad","PM","PM","0.69105","1","21","0.33681","0.41667","0.24653","7"
"1","Uad","PM","PM","0.67197","1","22","0.33681","0.33333","0.32986","7"
"1","Uad","PM","PM","1.5333","1","23","0.33681","0.5","0.16319","7"
"1","Uad","PM","PM","1.4555","1","24","0.33681","0.33333","0.32986","7"
"1","Uad","PM","PM","1.1718","0","25","0.33681","0.16667","0.17014","7"
"1","Uad","PM","PM","0.57026","0","26","0.33681","0.33333","0.0034722","7"
"1","Uad","PM","PM","1.29","1","27","0.33681","0.5","0.16319","7"
"1","Uad","PM","PM","0.73957","1","28","0.33681","0.25","0.086806","7"
"1","Uad","PM","PM","0.70673","1","29","0.33681","0.25","0.086806","7"
"1","Uad","PM","PM","1.085","1","30","0.33681","0.5","0.16319","7"
"1","Uad","PM","PM","1.5039","1","1","0.32986","0.083333","0.24653","7"
"1","Uad","PM","PM","1.2091","1","2","0.32986","0.083333","0.24653","7"
"1","Uad","PM","PM","0.74295","1","3","0.32986","0.33333","0.0034722","7"
"1","Uad","PM","PM","1.0725","1","4","0.32986","0.33333","0.33681","7"
"1","Uad","PM","PM","0.51623","1","5","0.32986","0.33333","0.0034722","7"
"1","Uad","PM","PM","0.71098","1","7","0.32986","0.41667","0.086806","7"
"1","Uad","PM","PM","0.59413","1","8","0.32986","0.33333","0.0034722","7"
"1","Uad","PM","PM","0.66549","1","9","0.32986","0.33333","0.0034722","7"
"1","Uad","PM","PM","0.78301","1","10","0.32986","0.16667","0.16319","7"
"1","Uad","PM","PM","0.69463","1","11","0.32986","0.41667","0.086806","7"
"1","Uad","PM","PM","0.76978","1","12","0.32986","0.5","0.17014","7"
"1","Uad","PM","PM","0.47317","1","13","0.32986","0.33333","0.33681","7"
"1","Uad","PM","PM","0.62934","1","14","0.32986","0.16667","0.16319","7"
"1","Uad","PM","PM","0.75547","1","15","0.32986","0.16667","0.49653","7"
"1","Uad","PM","PM","0.69982","1","16","0.32986","0.5","0.17014","7"
"1","Uad","PM","PM","0.80603","1","17","0.32986","0.5","0.17014","7"
"1","Uad","PM","PM","0.63657","1","18","0.32986","0.41667","0.086806","7"
"1","Uad","PM","PM","0.64349","1","19","0.32986","0.41667","0.086806","7"
"1","Uad","PM","PM","0.70453","1","20","0.32986","0.33333","0.33681","7"
"1","Uad","PM","PM","0.81034","1","21","0.32986","0.083333","0.24653","7"
"1","Uad","PM","PM","1.0889","1","22","0.32986","0.16667","0.16319","7"
"1","Uad","PM","PM","0.6198","1","23","0.32986","0.16667","0.16319","7"
"1","Uad","PM","PM","0.83312","1","25","0.32986","0.16667","0.49653","7"
"1","Uad","PM","PM","0.75508","1","28","0.32986","0.083333","0.24653","7"
"1","Uad","PM","PM","0.70755","1","29","0.32986","0.16667","0.49653","7"
"1","Uad","PM","PM","0.70164","1","30","0.32986","0.33333","0.33681","7"
"1","Uad","PM","PM","0.66641","1","1","0.49653","0.33333","0.16319","7"
"1","Uad","PM","PM","0.75737","1","2","0.49653","0.5","0.0034722","7"
"1","Uad","PM","PM","0.63689","1","3","0.49653","0.41667","0.086806","7"
"1","Uad","PM","PM","0.89812","1","4","0.49653","0.33333","0.17014","7"
"1","Uad","PM","PM","1.0839","1","5","0.49653","0.16667","0.32986","7"
"1","Uad","PM","PM","0.64563","1","6","0.49653","0.5","0.0034722","7"
"1","Uad","PM","PM","0.57809","1","7","0.49653","0.16667","0.33681","7"
"1","Uad","PM","PM","1.2916","1","8","0.49653","0.33333","0.17014","7"
"1","Uad","PM","PM","1.2597","1","11","0.49653","0.25","0.24653","7"
"1","Uad","PM","PM","0.89577","1","12","0.49653","0.16667","0.32986","7"
"1","Uad","PM","PM","0.91446","1","13","0.49653","0.16667","0.33681","7"
"1","Uad","PM","PM","1.082","0","14","0.49653","0.25","0.24653","7"
"1","Uad","PM","PM","0.70017","1","15","0.49653","0.33333","0.17014","7"
"1","Uad","PM","PM","0.69327","1","16","0.49653","0.5","0.0034722","7"
"1","Uad","PM","PM","0.71105","1","17","0.49653","0.25","0.24653","7"
"1","Uad","PM","PM","0.72115","1","18","0.49653","0.16667","0.33681","7"
"1","Uad","PM","PM","0.93716","1","19","0.49653","0.16667","0.32986","7"
"1","Uad","PM","PM","0.72665","1","21","0.49653","0.33333","0.16319","7"
"1","Uad","PM","PM","0.70387","1","22","0.49653","0.33333","0.16319","7"
"1","Uad","PM","PM","0.73117","1","23","0.49653","0.5","0.0034722","7"
"1","Uad","PM","PM","0.73199","1","24","0.49653","0.16667","0.33681","7"
"1","Uad","PM","PM","1.2063","1","25","0.49653","0.25","0.24653","7"
"1","Uad","PM","PM","0.58854","1","26","0.49653","0.41667","0.086806","7"
"1","Uad","PM","PM","0.65189","1","27","0.49653","0.16667","0.32986","7"
"1","Uad","PM","PM","0.49775","1","28","0.49653","0.41667","0.086806","7"
"1","Uad","PM","PM","0.54987","1","29","0.49653","0.33333","0.17014","7"
"1","Uad","PM","PM","0.84963","1","1","0.17014","0.33333","0.49653","7"
"1","Uad","PM","PM","0.66608","1","2","0.17014","0.5","0.32986","7"
"1","Uad","PM","PM","0.79771","1","3","0.17014","0.33333","0.49653","7"
"1","Uad","PM","PM","1.0054","1","4","0.17014","0.083333","0.086806","7"
"1","Uad","PM","PM","1.0734","1","5","0.17014","0.41667","0.24653","7"
"1","Uad","PM","PM","0.74699","1","6","0.17014","0.083333","0.086806","7"
"1","Uad","PM","PM","0.57724","1","7","0.17014","0.16667","0.33681","7"
"1","Uad","PM","PM","0.7018","1","9","0.17014","0.33333","0.16319","7"
"1","Uad","PM","PM","0.78303","1","10","0.17014","0.33333","0.16319","7"
"1","Uad","PM","PM","0.94905","1","12","0.17014","0.16667","0.0034722","7"
"1","Uad","PM","PM","0.50968","1","13","0.17014","0.16667","0.0034722","7"
"1","Uad","PM","PM","0.65581","1","14","0.17014","0.33333","0.49653","7"
"1","Uad","PM","PM","0.73286","1","15","0.17014","0.41667","0.24653","7"
"1","Uad","PM","PM","0.76563","1","16","0.17014","0.083333","0.086806","7"
"1","Uad","PM","PM","1.853","1","18","0.17014","0.083333","0.086806","7"
"1","Uad","PM","PM","0.63276","1","19","0.17014","0.5","0.32986","7"
"1","Uad","PM","PM","0.79743","1","20","0.17014","0.5","0.32986","7"
"1","Uad","PM","PM","0.85337","1","21","0.17014","0.16667","0.0034722","7"
"1","Uad","PM","PM","0.8246","1","22","0.17014","0.16667","0.33681","7"
"1","Uad","PM","PM","0.9828","1","23","0.17014","0.5","0.32986","7"
"1","Uad","PM","PM","0.64719","1","24","0.17014","0.33333","0.16319","7"
"1","Uad","PM","PM","0.54071","1","25","0.17014","0.33333","0.16319","7"
"1","Uad","PM","PM","0.56767","1","26","0.17014","0.33333","0.49653","7"
"1","Uad","PM","PM","0.52079","1","27","0.17014","0.16667","0.33681","7"
"1","Uad","PM","PM","1.2437","1","28","0.17014","0.16667","0.33681","7"
"1","Uad","PM","PM","0.85461","1","29","0.17014","0.41667","0.24653","7"
"1","Uad","PM","PM","0.57888","1","30","0.17014","0.16667","0.0034722","7"
"1","Con","noPM","noPM","1.14","1","1","0","0","0.49653","7"
"1","Con","noPM","noPM","1.3068","1","2","0","0","0.16319","7"
"1","Con","noPM","noPM","0.62846","1","3","0","0","0.32986","7"
"1","Con","noPM","noPM","0.70725","1","4","0","0","0.086806","7"
"1","Con","noPM","noPM","0.87066","1","5","0","0","0.32986","7"
"1","Con","noPM","noPM","0.65617","1","6","0","0","0.32986","7"
"1","Con","noPM","noPM","1.124","1","7","0","0","0.24653","7"
"1","Con","noPM","noPM","0.64647","1","8","0","0","0.17014","7"
"1","Con","noPM","noPM","0.5386","1","9","0","0","0.086806","7"
"1","Con","noPM","noPM","0.56226","1","10","0","0","0.086806","7"
"1","Con","noPM","noPM","0.8896","0","11","0","0","0.17014","7"
"1","Con","noPM","noPM","0.89866","1","12","0","0","0.33681","7"
"1","Con","noPM","noPM","0.66801","1","13","0","0","0.0034722","7"
"1","Con","noPM","noPM","0.57614","1","14","0","0","0.24653","7"
"1","Con","noPM","noPM","0.52861","1","15","0","0","0.0034722","7"
"1","Con","noPM","noPM","0.8756","1","16","0","0","0.24653","7"
"1","Con","noPM","noPM","0.51859","1","17","0","0","0.16319","7"
"1","Con","noPM","noPM","0.78278","0","18","0","0","0.086806","7"
"1","Con","noPM","noPM","0.79832","1","19","0","0","0.33681","7"
"1","Con","noPM","noPM","0.62155","1","20","0","0","0.49653","7"
"1","Con","noPM","noPM","0.63399","0","21","0","0","0.49653","7"
"1","Con","noPM","noPM","0.75939","1","22","0","0","0.33681","7"
"1","Con","noPM","noPM","0.63891","1","23","0","0","0.32986","7"
"1","Con","noPM","noPM","0.61222","1","24","0","0","0.16319","7"
"1","Con","noPM","noPM","0.63584","1","25","0","0","0.49653","7"
"1","Con","noPM","noPM","0.64635","1","26","0","0","0.0034722","7"
"1","Con","noPM","noPM","0.75192","1","27","0","0","0.0034722","7"
"1","Con","noPM","noPM","0.63042","1","28","0","0","0.17014","7"
"1","Con","noPM","noPM","0.8353","1","29","0","0","0.24653","7"
"1","Con","noPM","noPM","0.68049","1","30","0","0","0.33681","7"
"1","Con","noPM","noPM","0.78212","1","1","0","0","0.16319","7"
"1","Con","noPM","noPM","1.2941","1","2","0","0","0.24653","7"
"1","Con","noPM","noPM","0.66297","1","3","0","0","0.49653","7"
"1","Con","noPM","noPM","0.60348","1","4","0","0","0.16319","7"
"1","Con","noPM","noPM","0.72012","1","5","0","0","0.0034722","7"
"1","Con","noPM","noPM","0.52861","1","6","0","0","0.32986","7"
"1","Con","noPM","noPM","0.62487","1","7","0","0","0.24653","7"
"1","Con","noPM","noPM","0.61892","1","8","0","0","0.0034722","7"
"1","Con","noPM","noPM","1.3116","1","9","0","0","0.32986","7"
"1","Con","noPM","noPM","0.70471","1","10","0","0","0.49653","7"
"1","Con","noPM","noPM","0.74748","1","11","0","0","0.086806","7"
"1","Con","noPM","noPM","0.73107","1","12","0","0","0.33681","7"
"1","Con","noPM","noPM","0.98733","1","13","0","0","0.086806","7"
"1","Con","noPM","noPM","0.71455","1","14","0","0","0.086806","7"
"1","Con","noPM","noPM","0.59478","1","15","0","0","0.17014","7"
"1","Con","noPM","noPM","0.73499","1","16","0","0","0.086806","7"
"1","Con","noPM","noPM","0.80722","1","17","0","0","0.16319","7"
"1","Con","noPM","noPM","1.2374","1","18","0","0","0.49653","7"
"1","Con","noPM","noPM","0.68063","1","19","0","0","0.24653","7"
"1","Con","noPM","noPM","0.67469","1","20","0","0","0.0034722","7"
"1","Con","noPM","noPM","0.71658","1","21","0","0","0.17014","7"
"1","Con","noPM","noPM","0.5968","1","22","0","0","0.32986","7"
"1","Con","noPM","noPM","0.60784","1","23","0","0","0.0034722","7"
"1","Con","noPM","noPM","0.74755","1","24","0","0","0.24653","7"
"1","Con","noPM","noPM","0.59449","1","25","0","0","0.33681","7"
"1","Con","noPM","noPM","1.0174","1","26","0","0","0.17014","7"
"1","Con","noPM","noPM","0.50317","1","27","0","0","0.32986","7"
"1","Con","noPM","noPM","0.77214","1","28","0","0","0.17014","7"
"1","Con","noPM","noPM","1.4583","1","29","0","0","0.33681","7"
"1","Con","noPM","noPM","0.64672","1","30","0","0","0.16319","7"
"1","Con","noPM","noPM","0.71784","1","1","0","0","0.16319","7"
"1","Con","noPM","noPM","0.60065","1","2","0","0","0.49653","7"
"1","Con","noPM","noPM","0.59696","1","3","0","0","0.0034722","7"
"1","Con","noPM","noPM","0.49093","1","4","0","0","0.33681","7"
"1","Con","noPM","noPM","0.67067","1","5","0","0","0.17014","7"
"1","Con","noPM","noPM","0.73965","1","6","0","0","0.24653","7"
"1","Con","noPM","noPM","0.846","1","7","0","0","0.0034722","7"
"1","Con","noPM","noPM","0.71244","0","8","0","0","0.0034722","7"
"1","Con","noPM","noPM","0.5796","1","9","0","0","0.086806","7"
"1","Con","noPM","noPM","0.51449","0","10","0","0","0.17014","7"
"1","Con","noPM","noPM","1.2135","0","11","0","0","0.086806","7"
"1","Con","noPM","noPM","0.70091","0","12","0","0","0.17014","7"
"1","Con","noPM","noPM","0.71286","1","13","0","0","0.49653","7"
"1","Con","noPM","noPM","0.58562","1","14","0","0","0.24653","7"
"1","Con","noPM","noPM","0.85779","1","15","0","0","0.33681","7"
"1","Con","noPM","noPM","0.62402","1","16","0","0","0.17014","7"
"1","Con","noPM","noPM","0.71736","1","17","0","0","0.24653","7"
"1","Con","noPM","noPM","0.84697","1","18","0","0","0.33681","7"
"1","Con","noPM","noPM","0.9733","1","19","0","0","0.32986","7"
"1","Con","noPM","noPM","0.90931","1","20","0","0","0.086806","7"
"1","Con","noPM","noPM","0.79882","1","21","0","0","0.32986","7"
"1","Con","noPM","noPM","0.81655","1","22","0","0","0.16319","7"
"1","Con","noPM","noPM","0.95757","1","23","0","0","0.24653","7"
"1","Con","noPM","noPM","0.51859","0","24","0","0","0.16319","7"
"1","Con","noPM","noPM","0.8323","1","25","0","0","0.0034722","7"
"1","Con","noPM","noPM","0.67045","1","26","0","0","0.16319","7"
"1","Con","noPM","noPM","0.82089","1","27","0","0","0.33681","7"
"1","Con","noPM","noPM","0.65121","1","28","0","0","0.32986","7"
"1","Con","noPM","noPM","0.67849","1","29","0","0","0.086806","7"
"1","Con","noPM","noPM","0.75654","1","30","0","0","0.32986","7"
"1","Con","noPM","noPM","0.9249","1","1","0","0","0.49653","7"
"1","Con","noPM","noPM","0.65056","1","2","0","0","0.17014","7"
"1","Con","noPM","noPM","0.99879","1","3","0","0","0.17014","7"
"1","Con","noPM","noPM","0.52544","1","4","0","0","0.33681","7"
"1","Con","noPM","noPM","0.73628","1","5","0","0","0.0034722","7"
"1","Con","noPM","noPM","0.81715","1","6","0","0","0.086806","7"
"1","Con","noPM","noPM","0.54295","1","7","0","0","0.49653","7"
"1","Con","noPM","noPM","0.64624","1","8","0","0","0.0034722","7"
"1","Con","noPM","noPM","0.66376","1","9","0","0","0.32986","7"
"1","Con","noPM","noPM","1.0666","1","10","0","0","0.24653","7"
"1","Con","noPM","noPM","1.3353","1","11","0","0","0.16319","7"
"1","Con","noPM","noPM","0.63191","0","12","0","0","0.49653","7"
"1","Con","noPM","noPM","0.66271","1","13","0","0","0.17014","7"
"1","Con","noPM","noPM","1.0576","1","14","0","0","0.33681","7"
"1","Con","noPM","noPM","0.57412","1","15","0","0","0.0034722","7"
"1","Con","noPM","noPM","0.85348","1","16","0","0","0.0034722","7"
"1","Con","noPM","noPM","0.68181","1","17","0","0","0.24653","7"
"1","Con","noPM","noPM","0.89987","0","18","0","0","0.16319","7"
"1","Con","noPM","noPM","0.71058","1","19","0","0","0.086806","7"
"1","Con","noPM","noPM","0.98412","1","20","0","0","0.32986","7"
"1","Con","noPM","noPM","0.88829","1","21","0","0","0.33681","7"
"1","Con","noPM","noPM","0.84346","1","22","0","0","0.24653","7"
"1","Con","noPM","noPM","0.69692","1","23","0","0","0.32986","7"
"1","Con","noPM","noPM","0.55448","1","24","0","0","0.17014","7"
"1","Con","noPM","noPM","1.0758","0","25","0","0","0.086806","7"
"1","Con","noPM","noPM","0.94618","0","26","0","0","0.24653","7"
"1","Con","noPM","noPM","0.77078","1","27","0","0","0.32986","7"
"1","Con","noPM","noPM","0.68198","1","28","0","0","0.16319","7"
"1","Con","noPM","noPM","0.58252","1","29","0","0","0.49653","7"
"1","Con","noPM","noPM","0.76643","1","30","0","0","0.16319","7"
"1","Con","noPM","noPM","0.74059","0","1","0","0","0.17014","7"
"1","Con","noPM","noPM","0.58846","1","2","0","0","0.32986","7"
"1","Con","noPM","noPM","0.68673","1","3","0","0","0.086806","7"
"1","Con","noPM","noPM","0.6966","1","4","0","0","0.17014","7"
"1","Con","noPM","noPM","0.56116","1","5","0","0","0.0034722","7"
"1","Con","noPM","noPM","0.6096","1","6","0","0","0.0034722","7"
"1","Con","noPM","noPM","0.68005","1","7","0","0","0.0034722","7"
"1","Con","noPM","noPM","0.73131","1","8","0","0","0.086806","7"
"1","Con","noPM","noPM","0.80613","1","9","0","0","0.33681","7"
"1","Con","noPM","noPM","0.75725","1","10","0","0","0.16319","7"
"1","Con","noPM","noPM","0.99757","1","11","0","0","0.086806","7"
"1","Con","noPM","noPM","0.61042","1","12","0","0","0.0034722","7"
"1","Con","noPM","noPM","0.55199","0","13","0","0","0.17014","7"
"1","Con","noPM","noPM","0.65586","1","14","0","0","0.32986","7"
"1","Con","noPM","noPM","0.77267","1","15","0","0","0.16319","7"
"1","Con","noPM","noPM","0.80134","1","16","0","0","0.24653","7"
"1","Con","noPM","noPM","1.3572","1","17","0","0","0.16319","7"
"1","Con","noPM","noPM","0.67731","1","18","0","0","0.24653","7"
"1","Con","noPM","noPM","1.0474","0","19","0","0","0.49653","7"
"1","Con","noPM","noPM","0.86616","1","20","0","0","0.17014","7"
"1","Con","noPM","noPM","0.62902","1","21","0","0","0.49653","7"
"1","Con","noPM","noPM","0.56893","1","22","0","0","0.24653","7"
"1","Con","noPM","noPM","0.70317","1","23","0","0","0.33681","7"
"1","Con","noPM","noPM","1.0004","1","24","0","0","0.086806","7"
"1","Con","noPM","noPM","0.52585","1","25","0","0","0.16319","7"
"1","Con","noPM","noPM","0.65482","1","26","0","0","0.49653","7"
"1","Con","noPM","noPM","1.1865","1","27","0","0","0.33681","7"
"1","Con","noPM","noPM","0.56109","1","28","0","0","0.24653","7"
"1","Con","noPM","noPM","0.64806","1","29","0","0","0.49653","7"
"1","Con","noPM","noPM","0.95595","1","30","0","0","0.33681","7"
"1","Con","noPM","noPM","0.72689","1","1","0","0","0.16319","7"
"1","Con","noPM","noPM","0.65488","1","2","0","0","0.24653","7"
"1","Con","noPM","noPM","0.70647","1","3","0","0","0.24653","7"
"1","Con","noPM","noPM","0.45802","1","4","0","0","0.086806","7"
"1","Con","noPM","noPM","0.63902","1","5","0","0","0.0034722","7"
"1","Con","noPM","noPM","0.53877","1","6","0","0","0.17014","7"
"1","Con","noPM","noPM","0.6591","1","7","0","0","0.32986","7"
"1","Con","noPM","noPM","0.59131","1","8","0","0","0.17014","7"
"1","Con","noPM","noPM","0.72569","1","9","0","0","0.49653","7"
"1","Con","noPM","noPM","0.63123","1","10","0","0","0.086806","7"
"1","Con","noPM","noPM","0.53782","1","11","0","0","0.086806","7"
"1","Con","noPM","noPM","0.68033","1","12","0","0","0.24653","7"
"1","Con","noPM","noPM","0.89788","1","13","0","0","0.17014","7"
"1","Con","noPM","noPM","0.89391","1","14","0","0","0.33681","7"
"1","Con","noPM","noPM","0.4779","1","15","0","0","0.086806","7"
"1","Con","noPM","noPM","0.61857","1","16","0","0","0.0034722","7"
"1","Con","noPM","noPM","0.89443","0","17","0","0","0.32986","7"
"1","Con","noPM","noPM","0.86478","1","18","0","0","0.33681","7"
"1","Con","noPM","noPM","1.2041","1","19","0","0","0.49653","7"
"1","Con","noPM","noPM","0.66541","1","20","0","0","0.16319","7"
"1","Con","noPM","noPM","0.6092","1","21","0","0","0.16319","7"
"1","Con","noPM","noPM","0.98863","1","22","0","0","0.0034722","7"
"1","Con","noPM","noPM","0.53037","1","23","0","0","0.32986","7"
"1","Con","noPM","noPM","0.69069","1","24","0","0","0.17014","7"
"1","Con","noPM","noPM","0.80126","1","25","0","0","0.49653","7"
"1","Con","noPM","noPM","0.57642","1","26","0","0","0.32986","7"
"1","Con","noPM","noPM","0.55169","1","27","0","0","0.33681","7"
"1","Con","noPM","noPM","0.83161","1","28","0","0","0.16319","7"
"1","Con","noPM","noPM","0.6832","1","29","0","0","0.33681","7"
"1","Con","noPM","noPM","0.66958","1","30","0","0","0.24653","7"
"1","Con","noPM","noPM","1.0144","1","1","0","0","0.17014","7"
"1","Con","noPM","noPM","0.98646","1","2","0","0","0.0034722","7"
"1","Con","noPM","noPM","0.87269","1","3","0","0","0.24653","7"
"1","Con","noPM","noPM","0.69917","1","4","0","0","0.086806","7"
"1","Con","noPM","noPM","0.73973","1","5","0","0","0.24653","7"
"1","Con","noPM","noPM","1.3075","0","6","0","0","0.16319","7"
"1","Con","noPM","noPM","0.54835","1","7","0","0","0.086806","7"
"1","Con","noPM","noPM","0.55724","1","8","0","0","0.24653","7"
"1","Con","noPM","noPM","0.55015","0","9","0","0","0.33681","7"
"1","Con","noPM","noPM","0.71082","1","10","0","0","0.17014","7"
"1","Con","noPM","noPM","0.86492","1","11","0","0","0.16319","7"
"1","Con","noPM","noPM","0.78912","1","12","0","0","0.32986","7"
"1","Con","noPM","noPM","0.62769","1","13","0","0","0.16319","7"
"1","Con","noPM","noPM","0.56156","1","14","0","0","0.33681","7"
"1","Con","noPM","noPM","0.84156","1","15","0","0","0.33681","7"
"1","Con","noPM","noPM","0.52749","1","16","0","0","0.49653","7"
"1","Con","noPM","noPM","0.88204","1","17","0","0","0.33681","7"
"1","Con","noPM","noPM","0.54859","1","18","0","0","0.086806","7"
"1","Con","noPM","noPM","0.53248","1","19","0","0","0.086806","7"
"1","Con","noPM","noPM","0.83077","1","20","0","0","0.32986","7"
"1","Con","noPM","noPM","0.60326","1","21","0","0","0.49653","7"
"1","Con","noPM","noPM","0.86682","1","22","0","0","0.17014","7"
"1","Con","noPM","noPM","0.83961","1","23","0","0","0.0034722","7"
"1","Con","noPM","noPM","0.73957","1","24","0","0","0.24653","7"
"1","Con","noPM","noPM","0.94885","0","25","0","0","0.32986","7"
"1","Con","noPM","noPM","0.79792","1","26","0","0","0.16319","7"
"1","Con","noPM","noPM","0.78899","1","27","0","0","0.0034722","7"
"1","Con","noPM","noPM","0.88321","1","28","0","0","0.49653","7"
"1","Con","noPM","noPM","0.67813","1","29","0","0","0.32986","7"
"1","Con","noPM","noPM","0.8811","1","30","0","0","0.17014","7"
"1","Con","noPM","noPM","0.73535","1","1","0","0","0.0034722","7"
"1","Con","noPM","noPM","0.96827","1","2","0","0","0.17014","7"
"1","Con","noPM","noPM","0.46306","1","3","0","0","0.32986","7"
"1","Con","noPM","noPM","0.46633","1","4","0","0","0.33681","7"
"1","Con","noPM","noPM","0.73472","1","5","0","0","0.32986","7"
"1","Con","noPM","noPM","0.6309","1","6","0","0","0.16319","7"
"1","Con","noPM","noPM","0.55653","1","7","0","0","0.16319","7"
"1","Con","noPM","noPM","0.82878","1","8","0","0","0.49653","7"
"1","Con","noPM","noPM","0.59412","1","9","0","0","0.17014","7"
"1","Con","noPM","noPM","0.5275","0","10","0","0","0.086806","7"
"1","Con","noPM","noPM","0.98516","1","11","0","0","0.16319","7"
"1","Con","noPM","noPM","1.6946","0","12","0","0","0.0034722","7"
"1","Con","noPM","noPM","1.3868","1","13","0","0","0.24653","7"
"1","Con","noPM","noPM","0.88118","1","14","0","0","0.24653","7"
"1","Con","noPM","noPM","0.81277","1","15","0","0","0.0034722","7"
"1","Con","noPM","noPM","0.67977","1","16","0","0","0.49653","7"
"1","Con","noPM","noPM","0.60801","1","17","0","0","0.32986","7"
"1","Con","noPM","noPM","0.67874","1","18","0","0","0.0034722","7"
"1","Con","noPM","noPM","0.7545","1","19","0","0","0.33681","7"
"1","Con","noPM","noPM","0.66744","1","20","0","0","0.086806","7"
"1","Con","noPM","noPM","0.71872","1","21","0","0","0.49653","7"
"1","Con","noPM","noPM","0.82322","0","22","0","0","0.49653","7"
"1","Con","noPM","noPM","0.63811","1","23","0","0","0.086806","7"
"1","Con","noPM","noPM","0.74694","1","24","0","0","0.17014","7"
"1","Con","noPM","noPM","0.5319","1","25","0","0","0.33681","7"
"1","Con","noPM","noPM","0.69382","1","26","0","0","0.33681","7"
"1","Con","noPM","noPM","1.0637","1","27","0","0","0.086806","7"
"1","Con","noPM","noPM","0.65861","1","28","0","0","0.17014","7"
"1","Con","noPM","noPM","0.68474","1","29","0","0","0.24653","7"
"1","Con","noPM","noPM","1.1513","1","30","0","0","0.16319","7"
"1","Con","noPM","noPM","0.9172","1","1","0","0","0.32986","7"
"1","Con","noPM","noPM","0.56497","1","2","0","0","0.0034722","7"
"1","Con","noPM","noPM","0.6116","1","3","0","0","0.24653","7"
"1","Con","noPM","noPM","0.6076","1","4","0","0","0.16319","7"
"1","Con","noPM","noPM","0.54879","1","5","0","0","0.49653","7"
"1","Con","noPM","noPM","0.74941","1","6","0","0","0.086806","7"
"1","Con","noPM","noPM","0.46067","1","7","0","0","0.49653","7"
"1","Con","noPM","noPM","0.68861","1","8","0","0","0.32986","7"
"1","Con","noPM","noPM","0.98009","0","9","0","0","0.17014","7"
"1","Con","noPM","noPM","0.58732","1","10","0","0","0.17014","7"
"1","Con","noPM","noPM","0.5072","1","11","0","0","0.33681","7"
"1","Con","noPM","noPM","0.59811","1","12","0","0","0.0034722","7"
"1","Con","noPM","noPM","0.58919","1","13","0","0","0.33681","7"
"1","Con","noPM","noPM","0.64371","1","14","0","0","0.49653","7"
"1","Con","noPM","noPM","0.63374","1","15","0","0","0.32986","7"
"1","Con","noPM","noPM","0.56694","1","16","0","0","0.32986","7"
"1","Con","noPM","noPM","0.61631","1","17","0","0","0.086806","7"
"1","Con","noPM","noPM","0.75095","1","18","0","0","0.086806","7"
"1","Con","noPM","noPM","0.58304","1","19","0","0","0.33681","7"
"1","Con","noPM","noPM","0.93558","1","20","0","0","0.16319","7"
"1","Con","noPM","noPM","0.5514","1","21","0","0","0.0034722","7"
"1","Con","noPM","noPM","0.5533","1","22","0","0","0.0034722","7"
"1","Con","noPM","noPM","0.86633","1","23","0","0","0.49653","7"
"1","Con","noPM","noPM","0.87989","1","24","0","0","0.24653","7"
"1","Con","noPM","noPM","0.65993","1","25","0","0","0.17014","7"
"1","Con","noPM","noPM","0.55888","1","26","0","0","0.24653","7"
"1","Con","noPM","noPM","0.56618","1","27","0","0","0.17014","7"
"1","Con","noPM","noPM","0.58076","1","28","0","0","0.086806","7"
"1","Con","noPM","noPM","0.62745","1","29","0","0","0.33681","7"
"1","Con","noPM","noPM","0.66432","1","30","0","0","0.24653","7"
"1","Con","noPM","noPM","0.69395","1","1","0","0","0.33681","7"
"1","Con","noPM","noPM","0.62393","1","2","0","0","0.49653","7"
"1","Con","noPM","noPM","0.57119","1","3","0","0","0.086806","7"
"1","Con","noPM","noPM","0.48207","0","4","0","0","0.0034722","7"
"1","Con","noPM","noPM","0.56671","1","5","0","0","0.16319","7"
"1","Con","noPM","noPM","0.81368","1","6","0","0","0.49653","7"
"1","Con","noPM","noPM","0.58855","1","7","0","0","0.0034722","7"
"1","Con","noPM","noPM","0.75652","1","8","0","0","0.24653","7"
"1","Con","noPM","noPM","1.0294","0","9","0","0","0.24653","7"
"1","Con","noPM","noPM","0.50558","1","10","0","0","0.086806","7"
"1","Con","noPM","noPM","0.49883","1","11","0","0","0.33681","7"
"1","Con","noPM","noPM","0.53378","1","12","0","0","0.32986","7"
"1","Con","noPM","noPM","0.50366","1","13","0","0","0.49653","7"
"1","Con","noPM","noPM","0.57069","1","14","0","0","0.24653","7"
"1","Con","noPM","noPM","0.73963","1","15","0","0","0.33681","7"
"1","Con","noPM","noPM","0.67815","1","16","0","0","0.0034722","7"
"1","Con","noPM","noPM","1.0667","1","17","0","0","0.17014","7"
"1","Con","noPM","noPM","0.59111","1","18","0","0","0.32986","7"
"1","Con","noPM","noPM","0.52749","1","19","0","0","0.086806","7"
"1","Con","noPM","noPM","0.93085","1","20","0","0","0.086806","7"
"1","Con","noPM","noPM","0.52617","1","21","0","0","0.49653","7"
"1","Con","noPM","noPM","0.50458","1","22","0","0","0.0034722","7"
"1","Con","noPM","noPM","0.7399","1","23","0","0","0.17014","7"
"1","Con","noPM","noPM","0.89114","1","24","0","0","0.16319","7"
"1","Con","noPM","noPM","0.7496","1","25","0","0","0.17014","7"
"1","Con","noPM","noPM","0.58997","1","26","0","0","0.33681","7"
"1","Con","noPM","noPM","0.75845","1","27","0","0","0.16319","7"
"1","Con","noPM","noPM","0.68628","1","28","0","0","0.32986","7"
"1","Con","noPM","noPM","0.69071","1","29","0","0","0.24653","7"
"1","Con","noPM","noPM","0.60542","1","30","0","0","0.16319","7"
"1","Con","noPM","noPM","0.74143","1","1","0","0","0.49653","7"
"1","Con","noPM","noPM","0.3958","1","2","0","0","0.49653","7"
"1","Con","noPM","noPM","0.60736","1","3","0","0","0.24653","7"
"1","Con","noPM","noPM","0.67649","1","4","0","0","0.32986","7"
"1","Con","noPM","noPM","0.53446","1","5","0","0","0.49653","7"
"1","Con","noPM","noPM","0.70337","1","6","0","0","0.16319","7"
"1","Con","noPM","noPM","0.4417","1","7","0","0","0.16319","7"
"1","Con","noPM","noPM","0.45452","0","8","0","0","0.0034722","7"
"1","Con","noPM","noPM","0.47526","1","9","0","0","0.24653","7"
"1","Con","noPM","noPM","0.59113","1","10","0","0","0.32986","7"
"1","Con","noPM","noPM","0.5825","1","11","0","0","0.33681","7"
"1","Con","noPM","noPM","0.66945","1","12","0","0","0.32986","7"
"1","Con","noPM","noPM","0.65734","1","13","0","0","0.086806","7"
"1","Con","noPM","noPM","0.45194","1","14","0","0","0.24653","7"
"1","Con","noPM","noPM","0.4785","1","15","0","0","0.16319","7"
"1","Con","noPM","noPM","0.56151","1","16","0","0","0.16319","7"
"1","Con","noPM","noPM","0.57034","1","17","0","0","0.0034722","7"
"1","Con","noPM","noPM","0.53841","1","18","0","0","0.33681","7"
"1","Con","noPM","noPM","0.45229","1","19","0","0","0.086806","7"
"1","Con","noPM","noPM","0.8403","1","20","0","0","0.33681","7"
"1","Con","noPM","noPM","0.58297","1","21","0","0","0.49653","7"
"1","Con","noPM","noPM","0.58312","1","22","0","0","0.086806","7"
"1","Con","noPM","noPM","0.90274","1","23","0","0","0.0034722","7"
"1","Con","noPM","noPM","0.53628","1","24","0","0","0.24653","7"
"1","Con","noPM","noPM","0.6972","1","25","0","0","0.17014","7"
"1","Con","noPM","noPM","0.66909","1","26","0","0","0.17014","7"
"1","Con","noPM","noPM","0.41105","0","27","0","0","0.0034722","7"
"1","Con","noPM","noPM","1.0743","1","28","0","0","0.33681","7"
"1","Con","noPM","noPM","0.62928","1","29","0","0","0.17014","7"
"1","Con","noPM","noPM","0.80406","0","30","0","0","0.32986","7"
"1","Con","noPM","noPM","0.79072","1","1","0","0","0.086806","7"
"1","Con","noPM","noPM","0.6535","1","2","0","0","0.086806","7"
"1","Con","noPM","noPM","0.60694","1","3","0","0","0.24653","7"
"1","Con","noPM","noPM","0.62537","1","4","0","0","0.0034722","7"
"1","Con","noPM","noPM","0.59945","1","5","0","0","0.33681","7"
"1","Con","noPM","noPM","1.0989","0","6","0","0","0.33681","7"
"1","Con","noPM","noPM","0.65297","1","7","0","0","0.0034722","7"
"1","Con","noPM","noPM","0.8009","1","8","0","0","0.16319","7"
"1","Con","noPM","noPM","0.91207","1","9","0","0","0.49653","7"
"1","Con","noPM","noPM","0.62491","1","10","0","0","0.17014","7"
"1","Con","noPM","noPM","0.56499","1","11","0","0","0.33681","7"
"1","Con","noPM","noPM","0.717","1","12","0","0","0.32986","7"
"1","Con","noPM","noPM","0.60577","1","13","0","0","0.49653","7"
"1","Con","noPM","noPM","0.52452","1","14","0","0","0.0034722","7"
"1","Con","noPM","noPM","0.46313","0","15","0","0","0.32986","7"
"1","Con","noPM","noPM","0.81209","1","16","0","0","0.17014","7"
"1","Con","noPM","noPM","0.56998","1","17","0","0","0.32986","7"
"1","Con","noPM","noPM","0.60182","1","18","0","0","0.17014","7"
"1","Con","noPM","noPM","0.5352","1","19","0","0","0.0034722","7"
"1","Con","noPM","noPM","0.5524","1","20","0","0","0.49653","7"
"1","Con","noPM","noPM","0.44936","1","21","0","0","0.17014","7"
"1","Con","noPM","noPM","0.66282","1","22","0","0","0.086806","7"
"1","Con","noPM","noPM","0.57133","0","23","0","0","0.33681","7"
"1","Con","noPM","noPM","0.96478","1","24","0","0","0.24653","7"
"1","Con","noPM","noPM","0.74829","1","25","0","0","0.086806","7"
"1","Con","noPM","noPM","1.2844","1","26","0","0","0.16319","7"
"1","Con","noPM","noPM","0.62408","1","27","0","0","0.24653","7"
"1","Con","noPM","noPM","0.56531","1","28","0","0","0.16319","7"
"1","Con","noPM","noPM","0.68713","1","29","0","0","0.24653","7"
"1","Con","noPM","noPM","0.56983","1","30","0","0","0.49653","7"
"1","Con","noPM","noPM","0.64474","1","1","0","0","0.33681","7"
"1","Con","noPM","noPM","0.54423","1","2","0","0","0.0034722","7"
"1","Con","noPM","noPM","0.57723","1","3","0","0","0.24653","7"
"1","Con","noPM","noPM","0.75261","1","4","0","0","0.49653","7"
"1","Con","noPM","noPM","0.66312","1","5","0","0","0.0034722","7"
"1","Con","noPM","noPM","0.8237","1","6","0","0","0.086806","7"
"1","Con","noPM","noPM","0.62007","1","7","0","0","0.17014","7"
"1","Con","noPM","noPM","0.64013","1","8","0","0","0.49653","7"
"1","Con","noPM","noPM","0.47822","1","9","0","0","0.49653","7"
"1","Con","noPM","noPM","0.53026","1","10","0","0","0.49653","7"
"1","Con","noPM","noPM","0.61256","1","11","0","0","0.17014","7"
"1","Con","noPM","noPM","0.55525","1","12","0","0","0.33681","7"
"1","Con","noPM","noPM","0.7005","1","13","0","0","0.16319","7"
"1","Con","noPM","noPM","0.52687","1","14","0","0","0.0034722","7"
"1","Con","noPM","noPM","0.55365","1","15","0","0","0.32986","7"
"1","Con","noPM","noPM","0.53081","1","16","0","0","0.32986","7"
"1","Con","noPM","noPM","0.46083","1","17","0","0","0.16319","7"
"1","Con","noPM","noPM","0.54625","1","18","0","0","0.17014","7"
"1","Con","noPM","noPM","0.59691","1","19","0","0","0.24653","7"
"1","Con","noPM","noPM","0.69162","1","20","0","0","0.086806","7"
"1","Con","noPM","noPM","0.47972","1","21","0","0","0.16319","7"
"1","Con","noPM","noPM","0.58038","1","22","0","0","0.24653","7"
"1","Con","noPM","noPM","0.66859","1","23","0","0","0.086806","7"
"1","Con","noPM","noPM","1.2492","1","24","0","0","0.17014","7"
"1","Con","noPM","noPM","0.62333","1","25","0","0","0.33681","7"
"1","Con","noPM","noPM","0.95742","0","26","0","0","0.24653","7"
"1","Con","noPM","noPM","0.61105","1","27","0","0","0.33681","7"
"1","Con","noPM","noPM","0.73695","1","28","0","0","0.0034722","7"
"1","Con","noPM","noPM","0.72843","1","29","0","0","0.16319","7"
"1","Con","noPM","noPM","0.77469","1","30","0","0","0.086806","7"
"1","Con","noPM","noPM","0.6995","1","1","0","0","0.32986","7"
"1","Con","noPM","noPM","0.62814","1","2","0","0","0.16319","7"
"1","Con","noPM","noPM","0.51936","1","3","0","0","0.32986","7"
"1","Con","noPM","noPM","0.48758","1","4","0","0","0.086806","7"
"1","Con","noPM","noPM","0.57122","1","5","0","0","0.17014","7"
"1","Con","noPM","noPM","0.44987","0","6","0","0","0.24653","7"
"1","Con","noPM","noPM","0.63117","1","7","0","0","0.086806","7"
"1","Con","noPM","noPM","0.64406","1","8","0","0","0.17014","7"
"1","Con","noPM","noPM","0.77567","1","9","0","0","0.49653","7"
"1","Con","noPM","noPM","0.66386","0","10","0","0","0.33681","7"
"1","Con","noPM","noPM","0.60443","1","11","0","0","0.0034722","7"
"1","Con","noPM","noPM","0.65709","1","12","0","0","0.49653","7"
"1","Con","noPM","noPM","1.1306","1","13","0","0","0.0034722","7"
"1","Con","noPM","noPM","0.90036","1","14","0","0","0.17014","7"
"1","Con","noPM","noPM","0.80724","1","15","0","0","0.33681","7"
"1","Con","noPM","noPM","0.51568","1","16","0","0","0.0034722","7"
"1","Con","noPM","noPM","0.68431","1","17","0","0","0.49653","7"
"1","Con","noPM","noPM","0.8894","1","18","0","0","0.16319","7"
"1","Con","noPM","noPM","0.59105","1","19","0","0","0.17014","7"
"1","Con","noPM","noPM","0.49475","1","20","0","0","0.24653","7"
"1","Con","noPM","noPM","0.58602","1","21","0","0","0.0034722","7"
"1","Con","noPM","noPM","1.048","1","22","0","0","0.086806","7"
"1","Con","noPM","noPM","0.73143","1","23","0","0","0.33681","7"
"1","Con","noPM","noPM","0.6139","0","24","0","0","0.086806","7"
"1","Con","noPM","noPM","0.61285","1","25","0","0","0.32986","7"
"1","Con","noPM","noPM","0.47471","1","26","0","0","0.49653","7"
"1","Con","noPM","noPM","0.58208","1","27","0","0","0.33681","7"
"1","Con","noPM","noPM","0.63868","0","28","0","0","0.32986","7"
"1","Con","noPM","noPM","0.65062","1","29","0","0","0.24653","7"
"1","Con","noPM","noPM","0.68823","1","30","0","0","0.16319","7"
"1","Con","noPM","noPM","0.61435","1","1","0","0","0.086806","7"
"1","Con","noPM","noPM","0.57975","1","2","0","0","0.17014","7"
"1","Con","noPM","noPM","0.47433","1","3","0","0","0.0034722","7"
"1","Con","noPM","noPM","0.72572","1","4","0","0","0.086806","7"
"1","Con","noPM","noPM","0.51972","0","5","0","0","0.49653","7"
"1","Con","noPM","noPM","0.72179","1","6","0","0","0.49653","7"
"1","Con","noPM","noPM","0.55271","1","7","0","0","0.32986","7"
"1","Con","noPM","noPM","0.55963","1","8","0","0","0.16319","7"
"1","Con","noPM","noPM","0.50316","1","9","0","0","0.086806","7"
"1","Con","noPM","noPM","0.49829","1","10","0","0","0.49653","7"
"1","Con","noPM","noPM","0.42961","1","11","0","0","0.33681","7"
"1","Con","noPM","noPM","0.42785","0","12","0","0","0.17014","7"
"1","Con","noPM","noPM","0.6109","1","13","0","0","0.33681","7"
"1","Con","noPM","noPM","0.48976","1","14","0","0","0.33681","7"
"1","Con","noPM","noPM","0.67041","1","15","0","0","0.17014","7"
"1","Con","noPM","noPM","0.85537","1","16","0","0","0.24653","7"
"1","Con","noPM","noPM","0.81952","1","17","0","0","0.49653","7"
"1","Con","noPM","noPM","0.62476","1","18","0","0","0.32986","7"
"1","Con","noPM","noPM","0.608","1","19","0","0","0.086806","7"
"1","Con","noPM","noPM","0.51736","0","20","0","0","0.33681","7"
"1","Con","noPM","noPM","0.55086","1","21","0","0","0.24653","7"
"1","Con","noPM","noPM","0.46447","0","22","0","0","0.24653","7"
"1","Con","noPM","noPM","0.71775","1","23","0","0","0.16319","7"
"1","Con","noPM","noPM","0.73527","1","24","0","0","0.32986","7"
"1","Con","noPM","noPM","0.48785","1","25","0","0","0.0034722","7"
"1","Con","noPM","noPM","0.60113","1","26","0","0","0.16319","7"
"1","Con","noPM","noPM","0.53578","1","27","0","0","0.17014","7"
"1","Con","noPM","noPM","0.47272","1","28","0","0","0.16319","7"
"1","Con","noPM","noPM","0.59805","1","29","0","0","0.32986","7"
"1","Con","noPM","noPM","0.71023","0","30","0","0","0.24653","7"
"1","Con","noPM","noPM","0.81684","1","1","0","0","0.33681","7"
"1","Con","noPM","noPM","0.69226","1","2","0","0","0.32986","7"
"1","Con","noPM","noPM","0.5903","1","3","0","0","0.32986","7"
"1","Con","noPM","noPM","0.53411","1","4","0","0","0.49653","7"
"1","Con","noPM","noPM","0.54261","1","5","0","0","0.16319","7"
"1","Con","noPM","noPM","0.56659","1","6","0","0","0.17014","7"
"1","Con","noPM","noPM","0.66303","1","7","0","0","0.32986","7"
"1","Con","noPM","noPM","0.58808","1","8","0","0","0.24653","7"
"1","Con","noPM","noPM","0.58617","1","9","0","0","0.49653","7"
"1","Con","noPM","noPM","0.72898","1","10","0","0","0.0034722","7"
"1","Con","noPM","noPM","0.49851","1","11","0","0","0.16319","7"
"1","Con","noPM","noPM","0.71005","1","12","0","0","0.086806","7"
"1","Con","noPM","noPM","1.0953","1","13","0","0","0.33681","7"
"1","Con","noPM","noPM","0.50662","1","14","0","0","0.0034722","7"
"1","Con","noPM","noPM","0.52416","1","15","0","0","0.17014","7"
"1","Con","noPM","noPM","0.53592","1","16","0","0","0.16319","7"
"1","Con","noPM","noPM","0.4966","1","17","0","0","0.0034722","7"
"1","Con","noPM","noPM","0.6779","1","18","0","0","0.086806","7"
"1","Con","noPM","noPM","0.5934","1","19","0","0","0.086806","7"
"1","Con","noPM","noPM","0.62443","1","20","0","0","0.17014","7"
"1","Con","noPM","noPM","0.91066","1","21","0","0","0.24653","7"
"1","Con","noPM","noPM","0.60954","1","22","0","0","0.49653","7"
"1","Con","noPM","noPM","0.62103","1","23","0","0","0.24653","7"
"1","Con","noPM","noPM","0.56319","1","24","0","0","0.0034722","7"
"1","Con","noPM","noPM","1.0764","1","25","0","0","0.17014","7"
"1","Con","noPM","noPM","0.69627","1","26","0","0","0.33681","7"
"1","Con","noPM","noPM","0.76258","1","27","0","0","0.33681","7"
"1","Con","noPM","noPM","0.52337","1","28","0","0","0.49653","7"
"1","Con","noPM","noPM","0.66204","1","29","0","0","0.32986","7"
"1","Con","noPM","noPM","0.70643","1","30","0","0","0.086806","7"
"2","Rem","PM","noPM","0.73161","1","1","0.0054722","0.33333","0.33881","7"
"2","Rem","PM","noPM","0.57285","0","2","0.0054722","0.41667","0.41119","7"
"2","Rem","PM","noPM","0.87803","1","3","0.0054722","0.16667","0.17214","7"
"2","Rem","PM","noPM","0.7714","1","5","0.0054722","0.5","0.49453","7"
"2","Rem","PM","noPM","0.48283","1","6","0.0054722","0.25","0.25547","7"
"2","Rem","PM","noPM","0.92673","1","7","0.0054722","0.33333","0.32786","7"
"2","Rem","PM","noPM","0.60225","1","8","0.0054722","0.41667","0.41119","7"
"2","Rem","PM","noPM","0.55262","1","9","0.0054722","0.33333","0.32786","7"
"2","Rem","PM","noPM","0.59341","1","10","0.0054722","0.16667","0.17214","7"
"2","Rem","PM","noPM","0.50316","1","11","0.0054722","0.25","0.25547","7"
"2","Rem","PM","noPM","0.52617","1","13","0.0054722","0.25","0.25547","7"
"2","Rem","PM","noPM","0.70416","1","14","0.0054722","0.41667","0.41119","7"
"2","Rem","PM","noPM","0.62673","1","15","0.0054722","0.16667","0.16119","7"
"2","Rem","PM","noPM","0.62407","0","16","0.0054722","0.5","0.49453","7"
"2","Rem","PM","noPM","0.61382","1","17","0.0054722","0.33333","0.32786","7"
"2","Rem","PM","noPM","0.61411","1","18","0.0054722","0.33333","0.33881","7"
"2","Rem","PM","noPM","0.62729","0","19","0.0054722","0.33333","0.33881","7"
"2","Rem","PM","noPM","0.70658","1","20","0.0054722","0.33333","0.32786","7"
"2","Rem","PM","noPM","0.58164","1","21","0.0054722","0.5","0.49453","7"
"2","Rem","PM","noPM","0.61548","1","22","0.0054722","0.16667","0.16119","7"
"2","Rem","PM","noPM","0.58855","1","24","0.0054722","0.5","0.49453","7"
"2","Rem","PM","noPM","0.58014","1","25","0.0054722","0.25","0.25547","7"
"2","Rem","PM","noPM","0.7243","1","26","0.0054722","0.33333","0.33881","7"
"2","Rem","PM","noPM","0.60757","1","27","0.0054722","0.16667","0.17214","7"
"2","Rem","PM","noPM","0.67158","1","28","0.0054722","0.16667","0.17214","7"
"2","Rem","PM","noPM","0.69858","1","29","0.0054722","0.16667","0.16119","7"
"2","Rem","PM","noPM","0.74986","0","30","0.0054722","0.41667","0.41119","7"
"2","Rem","PM","noPM","0.86947","1","1","0.016528","0.25","0.23347","7"
"2","Rem","PM","noPM","0.53224","1","2","0.016528","0.083333","0.066806","7"
"2","Rem","PM","noPM","0.73998","1","3","0.016528","0.083333","0.099861","7"
"2","Rem","PM","noPM","0.53508","1","4","0.016528","0.41667","0.40014","7"
"2","Rem","PM","noPM","0.59223","1","5","0.016528","0.33333","0.31681","7"
"2","Rem","PM","noPM","0.48785","1","6","0.016528","0.25","0.23347","7"
"2","Rem","PM","noPM","0.55158","1","7","0.016528","0.083333","0.099861","7"
"2","Rem","PM","noPM","0.46213","0","8","0.016528","0.083333","0.099861","7"
"2","Rem","PM","noPM","0.64065","1","9","0.016528","0.41667","0.43319","7"
"2","Rem","PM","noPM","0.58975","0","10","0.016528","0.25","0.26653","7"
"2","Rem","PM","noPM","0.89295","1","11","0.016528","0.33333","0.31681","7"
"2","Rem","PM","noPM","0.64838","1","12","0.016528","0.41667","0.40014","7"
"2","Rem","PM","noPM","0.53458","1","13","0.016528","0.41667","0.40014","7"
"2","Rem","PM","noPM","0.744","1","14","0.016528","0.25","0.23347","7"
"2","Rem","PM","noPM","0.61752","1","15","0.016528","0.41667","0.43319","7"
"2","Rem","PM","noPM","0.72329","1","17","0.016528","0.083333","0.099861","7"
"2","Rem","PM","noPM","0.72454","1","18","0.016528","0.41667","0.43319","7"
"2","Rem","PM","noPM","0.6236","0","19","0.016528","0.41667","0.40014","7"
"2","Rem","PM","noPM","0.63612","1","20","0.016528","0.083333","0.066806","7"
"2","Rem","PM","noPM","0.72952","1","21","0.016528","0.25","0.23347","7"
"2","Rem","PM","noPM","0.56434","1","22","0.016528","0.083333","0.066806","7"
"2","Rem","PM","noPM","0.97049","0","23","0.016528","0.33333","0.31681","7"
"2","Rem","PM","noPM","0.55226","1","24","0.016528","0.33333","0.31681","7"
"2","Rem","PM","noPM","0.56023","1","25","0.016528","0.083333","0.066806","7"
"2","Rem","PM","noPM","0.63512","1","27","0.016528","0.25","0.26653","7"
"2","Rem","PM","noPM","0.59251","1","28","0.016528","0.25","0.26653","7"
"2","Rem","PM","noPM","0.66332","1","29","0.016528","0.41667","0.43319","7"
"2","Rem","PM","noPM","0.63793","1","30","0.016528","0.25","0.26653","7"
"2","Rem","PM","noPM","0.51166","1","1","0.0061389","0.16667","0.17281","7"
"2","Rem","PM","noPM","0.47302","0","2","0.0061389","0.41667","0.41053","7"
"2","Rem","PM","noPM","0.63639","1","4","0.0061389","0.33333","0.33947","7"
"2","Rem","PM","noPM","0.82465","1","5","0.0061389","0.33333","0.33947","7"
"2","Rem","PM","noPM","0.6867","1","6","0.0061389","0.16667","0.16053","7"
"2","Rem","PM","noPM","0.61792","1","7","0.0061389","0.33333","0.33947","7"
"2","Rem","PM","noPM","0.64791","1","8","0.0061389","0.5","0.49386","7"
"2","Rem","PM","noPM","0.99653","0","10","0.0061389","0.33333","0.32719","7"
"2","Rem","PM","noPM","0.59756","1","11","0.0061389","0.33333","0.32719","7"
"2","Rem","PM","noPM","0.62049","0","12","0.0061389","0.16667","0.17281","7"
"2","Rem","PM","noPM","0.77702","0","13","0.0061389","0.083333","0.077194","7"
"2","Rem","PM","noPM","0.69003","0","14","0.0061389","0.41667","0.41053","7"
"2","Rem","PM","noPM","0.59612","1","15","0.0061389","0.41667","0.41053","7"
"2","Rem","PM","noPM","0.56328","1","16","0.0061389","0.083333","0.077194","7"
"2","Rem","PM","noPM","0.88401","1","17","0.0061389","0.41667","0.41053","7"
